TaskName,taskIntruct,filepath,blockNum,trialnum,fmriRun,fmriBlock,time_presented,resp,RT
Quanti fatti ricordi?,1 = Moltissimo\n2 = Molto\n3 = Poco\n4 = Pochissimo,People/Bill Gates/selected/im_16.jpg,7,1,1,1,12.5282146216359,3,1.37164119030604
Quanti fatti ricordi?,1 = Moltissimo\n2 = Molto\n3 = Poco\n4 = Pochissimo,People/Brad Pitt/selected/im_13.jpg,7,2,1,1,15.0437808153329,1,1.19422144223063
Quanti fatti ricordi?,1 = Moltissimo\n2 = Molto\n3 = Poco\n4 = Pochissimo,People/Michelle Obama/selected/im_15.jpg,7,3,1,1,17.5594847383509,2,1.28161625787834
Quanti fatti ricordi?,1 = Moltissimo\n2 = Molto\n3 = Poco\n4 = Pochissimo,People/Giorgia Meloni/selected/im_67.jpg,7,4,1,1,20.0750962715138,1,1.10510458232238
Quanti fatti ricordi?,1 = Moltissimo\n2 = Molto\n3 = Poco\n4 = Pochissimo,People/Bill Clinton/selected/im_19.jpg,7,5,1,1,22.5907835130311,3,1.40848164542876
Quanti fatti ricordi?,1 = Moltissimo\n2 = Molto\n3 = Poco\n4 = Pochissimo,People/Mike Tyson/selected/im_41.jpg,7,6,1,1,25.1065524511341,3,1.85387474929666
Quanti fatti ricordi?,1 = Moltissimo\n2 = Molto\n3 = Poco\n4 = Pochissimo,People/Donald Trump/selected/im_23.jpg,7,7,1,1,27.622175533028,3,1.41946063999603
Quanti fatti ricordi?,1 = Moltissimo\n2 = Molto\n3 = Poco\n4 = Pochissimo,People/Justin Bieber/selected/im_38.jpg,7,8,1,1,30.1378268451572,3,1.30291383063195
Quanto familiare?,1 = Moltissimo\n2 = Molto\n3 = Poco\n4 = Pochissimo,People/Tom Cruise/selected/im_01.jpg,5,1,1,2,45.0152742674145,1,1.08486136602733
Quanto familiare?,1 = Moltissimo\n2 = Molto\n3 = Poco\n4 = Pochissimo,People/Fiorello/selected/im_77.jpg,5,2,1,2,47.5308960661168,1,1.19149808013026
Quanto familiare?,1 = Moltissimo\n2 = Molto\n3 = Poco\n4 = Pochissimo,People/Mike Tyson/selected/im_01.jpg,5,3,1,2,50.0465490891693,2,1.25497889362305
Quanto familiare?,1 = Moltissimo\n2 = Molto\n3 = Poco\n4 = Pochissimo,People/Sabrina Ferilli/selected/im_10.jpg,5,4,1,2,52.5622273483386,2,1.32019458330251
Quanto familiare?,1 = Moltissimo\n2 = Molto\n3 = Poco\n4 = Pochissimo,People/Brad Pitt/selected/im_07.jpg,5,5,1,2,55.0778880705457,1,0.788661198270347
Quanto familiare?,1 = Moltissimo\n2 = Molto\n3 = Poco\n4 = Pochissimo,People/Rihanna/selected/im_07 (1).jpg,5,6,1,2,57.5935543532523,1,1.01510702466476
Quanto familiare?,1 = Moltissimo\n2 = Molto\n3 = Poco\n4 = Pochissimo,People/Bill Gates/selected/im_14 (1).jpg,5,7,1,2,60.1092167863826,2,1.75958362971505
Quanto familiare?,1 = Moltissimo\n2 = Molto\n3 = Poco\n4 = Pochissimo,People/George Clooney/selected/im_17.jpg,5,8,1,2,62.6249001783217,1,1.40398790548352
Volto distintivo?,1 = Moltissimo\n2 = Molto\n3 = Poco\n4 = Pochissimo,People/Angelina Jolie/selected/im_46.jpg,9,1,1,3,77.5190119931449,1,1.15042223447381
Volto distintivo?,1 = Moltissimo\n2 = Molto\n3 = Poco\n4 = Pochissimo,People/Tom Cruise/selected/im_02.jpg,9,2,1,3,80.0346735708135,1,0.796849676999045
Volto distintivo?,1 = Moltissimo\n2 = Molto\n3 = Poco\n4 = Pochissimo,People/Laura Pausini/selected/im_36.jpg,9,3,1,3,82.5503308711723,2,1.56241341124223
Volto distintivo?,1 = Moltissimo\n2 = Molto\n3 = Poco\n4 = Pochissimo,People/Brad Pitt/selected/im_16.jpg,9,4,1,3,85.0659881715328,2,1.26775008030563
Volto distintivo?,1 = Moltissimo\n2 = Molto\n3 = Poco\n4 = Pochissimo,People/Jim Carrey/selected/im_18.jpg,9,5,1,3,87.5816651475106,1,1.21216646085668
Volto distintivo?,1 = Moltissimo\n2 = Molto\n3 = Poco\n4 = Pochissimo,People/Giorgio Napolitano/selected/im_03.jpg,9,6,1,3,90.0974601771923,3,1.49747446340007
Volto distintivo?,1 = Moltissimo\n2 = Molto\n3 = Poco\n4 = Pochissimo,People/Michelle Hunziker/selected/im_32.jpg,9,7,1,3,92.6129853087295,2,1.28116756825148
Volto distintivo?,1 = Moltissimo\n2 = Molto\n3 = Poco\n4 = Pochissimo,People/Matteo Salvini/selected/im_49.jpg,9,8,1,3,95.1286520191679,3,2.06664901564181
Che lavoro fa?,1 = Presentatore TV/attore\n2 = Cantante/Musicista\n3 = Politico/Sportivo\n4 = Altro/Non so,People/Bill Gates/selected/im_23.jpg,8,1,1,4,110.022913112047,3,1.13379034945137
Che lavoro fa?,1 = Presentatore TV/attore\n2 = Cantante/Musicista\n3 = Politico/Sportivo\n4 = Altro/Non so,People/Jim Carrey/selected/im_51 (1).jpg,8,2,1,4,112.538460057856,1,1.15948798910358
Che lavoro fa?,1 = Presentatore TV/attore\n2 = Cantante/Musicista\n3 = Politico/Sportivo\n4 = Altro/Non so,People/Giorgio Napolitano/selected/im_xx.jpg,8,3,1,4,115.054141738872,3,0.944823152556637
Che lavoro fa?,1 = Presentatore TV/attore\n2 = Cantante/Musicista\n3 = Politico/Sportivo\n4 = Altro/Non so,People/Sandra Bullock/selected/im_25.jpg,8,4,1,4,117.56975583842,2,1.49239815408509
Che lavoro fa?,1 = Presentatore TV/attore\n2 = Cantante/Musicista\n3 = Politico/Sportivo\n4 = Altro/Non so,People/Michelle Obama/selected/im_16.jpg,8,5,1,4,120.085443507667,4,1.50479422084391
Che lavoro fa?,1 = Presentatore TV/attore\n2 = Cantante/Musicista\n3 = Politico/Sportivo\n4 = Altro/Non so,People/George Bush/selected/im_85.jpg,8,6,1,4,122.601238537349,3,1.29195793353028
Che lavoro fa?,1 = Presentatore TV/attore\n2 = Cantante/Musicista\n3 = Politico/Sportivo\n4 = Altro/Non so,People/Arnold Schwarzenegger/selected/im_26.jpg,8,7,1,4,125.116788905005,1,1.57652082899403
Che lavoro fa?,1 = Presentatore TV/attore\n2 = Cantante/Musicista\n3 = Politico/Sportivo\n4 = Altro/Non so,People/Donald Trump/selected/im_18.jpg,8,8,1,4,127.63242781294,3,1.30000269470474
Quanto affidabile?,1 = Moltissimo\n2 = Molto\n3 = Poco\n4 = Pochissimo,People/Robin Williams/selected/im_04.jpg,4,1,1,5,142.526647415929,1,1.29038645051332
Quanto affidabile?,1 = Moltissimo\n2 = Molto\n3 = Poco\n4 = Pochissimo,People/Matteo Salvini/selected/im_71.jpg,4,2,1,5,145.042195644932,4,1.19693967156127
Quanto affidabile?,1 = Moltissimo\n2 = Molto\n3 = Poco\n4 = Pochissimo,People/George Clooney/selected/im_13.jpg,4,3,1,5,147.557880320062,1,1.54538929706359
Quanto affidabile?,1 = Moltissimo\n2 = Molto\n3 = Poco\n4 = Pochissimo,People/Angelino Alfano/selected/im_65.jpg,4,4,1,5,150.073570127965,3,1.9308607355506
Quanto affidabile?,1 = Moltissimo\n2 = Molto\n3 = Poco\n4 = Pochissimo,People/Matt Damon/selected/im_36.jpg,4,5,1,5,152.589241543441,2,1.39623271807068
Quanto affidabile?,1 = Moltissimo\n2 = Molto\n3 = Poco\n4 = Pochissimo,People/Barack Obama/selected/im_17.jpg,4,6,1,5,155.104899271531,2,1.84158946481875
Quanto affidabile?,1 = Moltissimo\n2 = Molto\n3 = Poco\n4 = Pochissimo,People/Bill Gates/selected/im_17.jpg,4,7,1,5,157.620542456776,3,1.30702432376711
Quanto affidabile?,1 = Moltissimo\n2 = Molto\n3 = Poco\n4 = Pochissimo,People/Romano Prodi/selected/im_17.jpg,4,8,1,5,160.136230981485,2,1.29342804434236
Sicuramente conoscere\n(nome e cognome)?,1 = Moltissimo\n2 = Molto\n3 = Poco\n4 = Pochissimo,People/Giorgia Meloni/selected/im_49.jpg,10,1,1,6,175.013644613009,1,1.07958915599738
Sicuramente conoscere\n(nome e cognome)?,1 = Moltissimo\n2 = Molto\n3 = Poco\n4 = Pochissimo,People/Brad Pitt/selected/im_03.jpg,10,2,1,6,177.529310040254,1,0.886018720066204
Sicuramente conoscere\n(nome e cognome)?,1 = Moltissimo\n2 = Molto\n3 = Poco\n4 = Pochissimo,People/George Bush/selected/im_05.jpg,10,3,1,6,180.044993859925,1,1.07043400562725
Sicuramente conoscere\n(nome e cognome)?,1 = Moltissimo\n2 = Molto\n3 = Poco\n4 = Pochissimo,People/Angelina Jolie/selected/im_42.jpg,10,4,1,6,182.56063276786,1,0.754878163015746
Sicuramente conoscere\n(nome e cognome)?,1 = Moltissimo\n2 = Molto\n3 = Poco\n4 = Pochissimo,People/Hillary Clinton/selected/im_14.jpg,10,5,1,6,185.076369198419,3,1.52025754527858
Sicuramente conoscere\n(nome e cognome)?,1 = Moltissimo\n2 = Molto\n3 = Poco\n4 = Pochissimo,People/Britney Spears/selected/im_29.jpg,10,6,1,6,187.592003829046,2,1.52373200269176
Sicuramente conoscere\n(nome e cognome)?,1 = Moltissimo\n2 = Molto\n3 = Poco\n4 = Pochissimo,People/Barack Obama/selected/im_01.jpg,10,7,1,6,190.107647014291,1,1.12816397830829
Sicuramente conoscere\n(nome e cognome)?,1 = Moltissimo\n2 = Molto\n3 = Poco\n4 = Pochissimo,People/Jim Carrey/selected/im_59.jpg,10,8,1,6,192.623306025573,1,0.896600352707537
Quanto amichevole?,1 = Moltissimo\n2 = Molto\n3 = Poco\n4 = Pochissimo,People/Romano Prodi/selected/im_13.jpg,3,1,1,7,207.517533755446,2,0.863043587052744
Quanto amichevole?,1 = Moltissimo\n2 = Molto\n3 = Poco\n4 = Pochissimo,People/Rihanna/selected/im_08 (1).jpg,3,2,1,7,210.033090539066,2,2.14754660020299
Quanto amichevole?,1 = Moltissimo\n2 = Molto\n3 = Poco\n4 = Pochissimo,People/Matteo Renzi/selected/im_72.jpg,3,3,1,7,212.548735862962,3,1.55210980363336
Quanto amichevole?,1 = Moltissimo\n2 = Molto\n3 = Poco\n4 = Pochissimo,People/Roberto Maroni/selected/im_25.jpg,3,4,1,7,215.064435080942,2,1.75637778725468
Quanto amichevole?,1 = Moltissimo\n2 = Molto\n3 = Poco\n4 = Pochissimo,People/Mike Tyson/selected/im_10.jpg,3,5,1,7,217.580076555261,3,1.28583411144791
Quanto amichevole?,1 = Moltissimo\n2 = Molto\n3 = Poco\n4 = Pochissimo,People/Laura Pausini/selected/im_17.jpg,3,6,1,7,220.095828384132,2,1.75017355177806
Quanto amichevole?,1 = Moltissimo\n2 = Molto\n3 = Poco\n4 = Pochissimo,People/Sabrina Ferilli/selected/im_15.jpg,3,7,1,7,222.611469430722,2,0.874596596373522
Quanto amichevole?,1 = Moltissimo\n2 = Molto\n3 = Poco\n4 = Pochissimo,People/Giorgia Meloni/selected/im_30.jpg,3,8,1,7,225.127102778155,4,1.4381969606311
Stesso monumento?,1 = Stesso monumento \n2 = Monumento diverso,Monuments/33 Porta di Brandeburgo copy.jpg,15,1,1,8,240.021231274481,,
Stesso monumento?,1 = Stesso monumento \n2 = Monumento diverso,Monuments/37 Statua della liberta copy.jpg,15,2,1,8,242.53686804376,2,0.782968528848869
Stesso monumento?,1 = Stesso monumento \n2 = Monumento diverso,Monuments/17 House of Parliament copy.jpg,15,3,1,8,245.052497541617,2,0.809497249476408
Stesso monumento?,1 = Stesso monumento \n2 = Monumento diverso,Monuments/10 Colosseo copy.jpg,15,4,1,8,247.568204031022,2,0.633835047321554
Stesso monumento?,1 = Stesso monumento \n2 = Monumento diverso,Monuments/10 Colosseo copy.jpg,15,5,1,8,250.083879723807,1,0.520247707469025
Stesso monumento?,1 = Stesso monumento \n2 = Monumento diverso,Monuments/19 Mart copy.jpg,15,6,1,8,252.599500667047,2,0.672726043974762
Stesso monumento?,1 = Stesso monumento \n2 = Monumento diverso,Monuments/20 Mole Antonelliana copy.jpg,15,7,1,8,255.115243085838,2,0.537080198246258
Stesso monumento?,1 = Stesso monumento \n2 = Monumento diverso,Monuments/20 Mole Antonelliana copy.jpg,15,8,1,8,257.630843498,1,0.882590885312311
Memoria remota?,1 = Moltissimo\n2 = Molto\n3 = Poco\n4 = Pochissimo,People/Jim Carrey/selected/im_16.jpg,1,1,1,9,272.525097319454,1,1.18892228516052
Memoria remota?,1 = Moltissimo\n2 = Molto\n3 = Poco\n4 = Pochissimo,People/Bill Gates/selected/im_15.jpg,1,2,1,9,275.040681905575,4,1.19343955030126
Memoria remota?,1 = Moltissimo\n2 = Molto\n3 = Poco\n4 = Pochissimo,People/Britney Spears/selected/im_31.jpg,1,3,1,9,277.556278468159,2,1.26399930878688
Memoria remota?,1 = Moltissimo\n2 = Molto\n3 = Poco\n4 = Pochissimo,People/Sandra Bullock/selected/im_18.jpg,1,4,1,9,280.07193020802,2,1.78840712616693
Memoria remota?,1 = Moltissimo\n2 = Molto\n3 = Poco\n4 = Pochissimo,People/Silvio Berlusconi/selected/Silvio Berlusconi_6.jpg,1,5,1,9,282.587667494041,2,1.65582682719105
Memoria remota?,1 = Moltissimo\n2 = Molto\n3 = Poco\n4 = Pochissimo,People/Laura Pausini/selected/im_10.jpg,1,6,1,9,285.103265767548,2,1.25924764716001
Memoria remota?,1 = Moltissimo\n2 = Molto\n3 = Poco\n4 = Pochissimo,People/Angelina Jolie/selected/im_30.jpg,1,7,1,9,287.618931194795,2,0.903668176699284
Memoria remota?,1 = Moltissimo\n2 = Molto\n3 = Poco\n4 = Pochissimo,People/Sabrina Ferilli/selected/im_11.jpg,1,8,1,9,290.13459704977,2,0.851091932610871
Stesso monumento?,1 = Stesso monumento \n2 = Monumento diverso,Monuments/13 Duomo di Trento copy.jpg,14,1,1,10,305.028852582147,,
Stesso monumento?,1 = Stesso monumento \n2 = Monumento diverso,Monuments/13 Duomo di Trento copy.jpg,14,2,1,10,307.54442733046,1,0.530916169465854
Stesso monumento?,1 = Stesso monumento \n2 = Monumento diverso,Monuments/27 Piazza San Pietro copy.jpg,14,3,1,10,310.06002731489,2,0.975437985662211
Stesso monumento?,1 = Stesso monumento \n2 = Monumento diverso,Monuments/27 Piazza San Pietro copy.jpg,14,4,1,10,312.57570044129,1,0.899863938828275
Stesso monumento?,1 = Stesso monumento \n2 = Monumento diverso,Monuments/25 Piazza di Spagna copy.jpg,14,5,1,10,315.091408213886,2,0.586243578156427
Stesso monumento?,1 = Stesso monumento \n2 = Monumento diverso,Monuments/39 Taj Mahal copy.jpg,14,6,1,10,317.607064658785,2,1.07070561469482
Stesso monumento?,1 = Stesso monumento \n2 = Monumento diverso,Monuments/20 Mole Antonelliana copy.jpg,14,7,1,10,320.122755749879,2,0.737227423191143
Stesso monumento?,1 = Stesso monumento \n2 = Monumento diverso,Monuments/37 Statua della liberta copy.jpg,14,8,1,10,322.63843486451,2,0.944642650150854
Stesso monumento?,1 = Stesso monumento \n2 = Monumento diverso,Monuments/20 Mole Antonelliana copy.jpg,16,1,1,11,337.515833097725,,
Stesso monumento?,1 = Stesso monumento \n2 = Monumento diverso,Monuments/16 Golden Gate copy.jpg,16,2,1,11,340.031514351011,2,0.604109038851675
Stesso monumento?,1 = Stesso monumento \n2 = Monumento diverso,Monuments/35 Santa Maria del Fiore copy.jpg,16,3,1,11,342.547135721983,2,1.0487245280965
Stesso monumento?,1 = Stesso monumento \n2 = Monumento diverso,Monuments/35 Santa Maria del Fiore copy.jpg,16,4,1,11,345.062914925624,1,0.772909583265573
Stesso monumento?,1 = Stesso monumento \n2 = Monumento diverso,Monuments/35 Santa Maria del Fiore copy.jpg,16,5,1,11,347.578464437818,1,0.677595331573684
Stesso monumento?,1 = Stesso monumento \n2 = Monumento diverso,Monuments/35 Santa Maria del Fiore copy.jpg,16,6,1,11,350.094179054107,1,0.641840457261424
Stesso monumento?,1 = Stesso monumento \n2 = Monumento diverso,Monuments/15 Fontana di Trevi copy.jpg,16,7,1,11,352.609803419195,2,0.586328268858779
Stesso monumento?,1 = Stesso monumento \n2 = Monumento diverso,Monuments/23 Palazzo vecchio copy.jpg,16,8,1,11,355.125537283371,2,0.869647750840159
Nome comune?,1 = Moltissimo\n2 = Molto\n3 = Poco\n4 = Pochissimo,People/Bill Clinton/selected/im_16.jpg,6,1,1,12,370.019697859507,3,1.6192661080222
Nome comune?,1 = Moltissimo\n2 = Molto\n3 = Poco\n4 = Pochissimo,People/Bill Gates/selected/im_07.jpg,6,2,1,12,372.535224701969,4,1.20383768642205
Nome comune?,1 = Moltissimo\n2 = Molto\n3 = Poco\n4 = Pochissimo,People/Michelle Hunziker/selected/im_24.jpg,6,3,1,12,375.05092990818,2,1.82910656870445
Nome comune?,1 = Moltissimo\n2 = Molto\n3 = Poco\n4 = Pochissimo,People/Fiorello/selected/im_35.jpg,6,4,1,12,377.566588064001,1,1.7725344633418
Nome comune?,1 = Moltissimo\n2 = Molto\n3 = Poco\n4 = Pochissimo,People/Michael Jackson/selected/im_33.jpg,6,5,1,12,380.082298830714,3,2.3808921523796
Nome comune?,1 = Moltissimo\n2 = Molto\n3 = Poco\n4 = Pochissimo,People/Paris Hilton/selected/im_26.jpg,6,6,1,12,382.597917207568,4,1.47738736885185
Nome comune?,1 = Moltissimo\n2 = Molto\n3 = Poco\n4 = Pochissimo,People/Angelino Alfano/selected/im_68.jpg,6,7,1,12,385.113612575971,3,1.68196075227752
Nome comune?,1 = Moltissimo\n2 = Molto\n3 = Poco\n4 = Pochissimo,People/Silvio Berlusconi/selected/im_05.jpg,6,8,1,12,387.62923779652,3,1.19031797081152
Stesso volto?,1 = Stesso volto\n2 = Volto diverso,People/Sabrina Ferilli/selected/im_04.jpg,11,1,1,13,402.523396234003,,
Stesso volto?,1 = Stesso volto\n2 = Volto diverso,People/George Bush/selected/im_24.jpg,11,2,1,13,405.039018032705,2,0.653128273477705
Stesso volto?,1 = Stesso volto\n2 = Volto diverso,People/Brad Pitt/selected/im_06.jpg,11,3,1,13,407.554653518793,2,0.842600620466328
Stesso volto?,1 = Stesso volto\n2 = Volto diverso,People/Sandra Bullock/selected/im_12.jpg,11,4,1,13,410.070387382968,2,0.99002745604048
Stesso volto?,1 = Stesso volto\n2 = Volto diverso,People/Bill Gates/selected/im_43.jpg,11,5,1,13,412.586020730403,2,0.535418036297415
Stesso volto?,1 = Stesso volto\n2 = Volto diverso,People/Bill Gates/selected/im_43.jpg,11,6,1,13,415.101725508883,1,0.700820687114174
Stesso volto?,1 = Stesso volto\n2 = Volto diverso,People/Bill Gates/selected/im_43.jpg,11,7,1,13,417.61740761763,1,0.624234629172861
Stesso volto?,1 = Stesso volto\n2 = Volto diverso,People/Mike Tyson/selected/im_11.jpg,11,8,1,13,420.133006746599,2,0.790727993569817
Stesso volto?,1 = Stesso volto\n2 = Volto diverso,People/Cameron Diaz/selected/im_32.jpg,13,1,1,14,435.01044475878,,
Stesso volto?,1 = Stesso volto\n2 = Volto diverso,People/Michelle Obama/selected/im_10.jpg,13,2,1,14,437.526117457448,2,0.64830090349642
Stesso volto?,1 = Stesso volto\n2 = Volto diverso,People/Fiorello/selected/im_77.jpg,13,3,1,14,440.041760214961,1,0.614749698341257
Stesso volto?,1 = Stesso volto\n2 = Volto diverso,People/Angelina Jolie/selected/im_22.jpg,13,4,1,14,442.557490229559,2,0.862124821262114
Stesso volto?,1 = Stesso volto\n2 = Volto diverso,People/Rihanna/selected/im_15.jpg,13,5,1,14,445.073126143379,2,0.586588756925266
Stesso volto?,1 = Stesso volto\n2 = Volto diverso,People/Michelle Hunziker/selected/im_19.jpg,13,6,1,14,447.588769756352,2,0.551039621133896
Stesso volto?,1 = Stesso volto\n2 = Volto diverso,People/Britney Spears/selected/im_30 (1).jpg,13,7,1,14,450.104466835677,2,0.815458961580589
Stesso volto?,1 = Stesso volto\n2 = Volto diverso,People/Matteo Renzi/selected/im_14.jpg,13,8,1,14,452.620120286461,2,0.519886274931196
Quanto attraente?,1 = Moltissimo\n2 = Molto\n3 = Poco\n4 = Pochissimo,People/Paris Hilton/selected/im_01.jpg,2,1,1,15,467.514259903786,2,1.17733976241288
Quanto attraente?,1 = Moltissimo\n2 = Molto\n3 = Poco\n4 = Pochissimo,People/Julia Roberts/selected/im_31.jpg,2,2,1,15,470.029875714257,1,1.06394105184881
Quanto attraente?,1 = Moltissimo\n2 = Molto\n3 = Poco\n4 = Pochissimo,People/Cameron Diaz/selected/im_10.jpg,2,3,1,15,472.545553545697,2,1.37425291466388
Quanto attraente?,1 = Moltissimo\n2 = Molto\n3 = Poco\n4 = Pochissimo,People/Michelle Obama/selected/im_28.jpg,2,4,1,15,475.06119715867,3,1.13868530090076
Quanto attraente?,1 = Moltissimo\n2 = Molto\n3 = Poco\n4 = Pochissimo,People/Jim Carrey/selected/im_59.jpg,2,5,1,15,477.576934016963,3,1.62207159444006
Quanto attraente?,1 = Moltissimo\n2 = Molto\n3 = Poco\n4 = Pochissimo,People/Sabrina Ferilli/selected/im_14.jpg,2,6,1,15,480.092516036699,2,0.888572700765508
Quanto attraente?,1 = Moltissimo\n2 = Molto\n3 = Poco\n4 = Pochissimo,People/Silvio Berlusconi/selected/Silvio Berlusconi_2.jpg,2,7,1,15,482.608225520218,4,0.992958695318521
Quanto attraente?,1 = Moltissimo\n2 = Molto\n3 = Poco\n4 = Pochissimo,People/Matteo Salvini/selected/im_31.jpg,2,8,1,15,485.123893513848,4,0.777387497171731
Stesso volto?,1 = Stesso volto\n2 = Volto diverso,People/Angelino Alfano/selected/im_68.jpg,12,1,1,16,500.018002334555,,
Stesso volto?,1 = Stesso volto\n2 = Volto diverso,People/Angelino Alfano/selected/im_68.jpg,12,2,1,16,502.53365749626,2,0.760293662868207
Stesso volto?,1 = Stesso volto\n2 = Volto diverso,People/George Clooney/selected/im_11.jpg,12,3,1,16,505.0493297672,2,0.864730557388611
Stesso volto?,1 = Stesso volto\n2 = Volto diverso,People/Michael Jackson/selected/im_08.jpg,12,4,1,16,507.564967819673,2,0.870190541247212
Stesso volto?,1 = Stesso volto\n2 = Volto diverso,People/Michael Jackson/selected/im_08.jpg,12,5,1,16,510.080629825072,1,0.519612527208665
Stesso volto?,1 = Stesso volto\n2 = Volto diverso,People/Giorgio Napolitano/selected/im_38.jpg,12,6,1,16,512.596442391718,2,0.608889786173677
Stesso volto?,1 = Stesso volto\n2 = Volto diverso,People/Giorgio Napolitano/selected/im_38.jpg,12,7,1,16,515.111973939218,1,0.519461965963274
Stesso volto?,1 = Stesso volto\n2 = Volto diverso,People/Angelina Jolie/selected/im_46.jpg,12,8,1,16,517.627689838699,2,0.746840673265979
Sicuramente conoscere\n(nome e cognome)?,1 = Moltissimo\n2 = Molto\n3 = Poco\n4 = Pochissimo,People/Julia Roberts/selected/im_104.jpg,10,9,2,17,12.528404106386,1,0.810882669587954
Sicuramente conoscere\n(nome e cognome)?,1 = Moltissimo\n2 = Molto\n3 = Poco\n4 = Pochissimo,People/Paris Hilton/selected/im_39.jpg,10,10,2,17,15.043812467411,3,1.27667596695937
Sicuramente conoscere\n(nome e cognome)?,1 = Moltissimo\n2 = Molto\n3 = Poco\n4 = Pochissimo,People/Laura Pausini/selected/im_10.jpg,10,11,2,17,17.5594017585718,1,1.36218705609463
Sicuramente conoscere\n(nome e cognome)?,1 = Moltissimo\n2 = Molto\n3 = Poco\n4 = Pochissimo,People/George Clooney/selected/im_01.jpg,10,12,2,17,20.0750723185865,1,0.767581768232048
Sicuramente conoscere\n(nome e cognome)?,1 = Moltissimo\n2 = Molto\n3 = Poco\n4 = Pochissimo,People/Sabrina Ferilli/selected/im_13.jpg,10,13,2,17,22.5907638374119,1,0.934006267967561
Sicuramente conoscere\n(nome e cognome)?,1 = Moltissimo\n2 = Molto\n3 = Poco\n4 = Pochissimo,People/Filippo Inzaghi/selected/im_16.jpg,10,14,2,17,25.1064331142352,3,1.21943874017779
Sicuramente conoscere\n(nome e cognome)?,1 = Moltissimo\n2 = Molto\n3 = Poco\n4 = Pochissimo,People/Justin Bieber/selected/im_06.jpg,10,15,2,17,27.6221088070197,2,1.40497810232046
Sicuramente conoscere\n(nome e cognome)?,1 = Moltissimo\n2 = Molto\n3 = Poco\n4 = Pochissimo,People/Paolo Bonolis/selected/im_13.jpg,10,16,2,17,30.1377430099146,1,0.912314755130865
Quanto amichevole?,1 = Moltissimo\n2 = Molto\n3 = Poco\n4 = Pochissimo,People/George Bush/selected/im_28.jpg,3,9,2,18,45.0151746061347,3,1.47447152788482
Quanto amichevole?,1 = Moltissimo\n2 = Molto\n3 = Poco\n4 = Pochissimo,People/Cameron Diaz/selected/im_16.jpg,3,10,2,18,47.5309127476175,2,1.19892391481517
Quanto amichevole?,1 = Moltissimo\n2 = Molto\n3 = Poco\n4 = Pochissimo,People/Angelina Jolie/selected/im_22.jpg,3,11,2,18,50.0465448118593,2,0.863279694463927
Quanto amichevole?,1 = Moltissimo\n2 = Molto\n3 = Poco\n4 = Pochissimo,People/Britney Spears/selected/im_23.jpg,3,12,2,18,52.5621734542547,2,1.02988683525837
Quanto amichevole?,1 = Moltissimo\n2 = Molto\n3 = Poco\n4 = Pochissimo,People/Hillary Clinton/selected/im_13.jpg,3,13,2,18,55.0779073184312,3,1.25413241433853
Quanto amichevole?,1 = Moltissimo\n2 = Molto\n3 = Poco\n4 = Pochissimo,People/Julia Roberts/selected/im_04.jpg,3,14,2,18,57.5935064473997,2,1.05871460901835
Quanto amichevole?,1 = Moltissimo\n2 = Molto\n3 = Poco\n4 = Pochissimo,People/Daniel Radcliffe/selected/im_21.jpg,3,15,2,18,60.1091851343008,2,1.14505635139722
Quanto amichevole?,1 = Moltissimo\n2 = Molto\n3 = Poco\n4 = Pochissimo,People/Michael Jackson/selected/im_06.jpg,3,16,2,18,62.6248531279307,2,1.0314737165827
Stesso volto?,1 = Stesso volto\n2 = Volto diverso,People/Britney Spears/selected/im_23.jpg,12,9,2,19,77.5189888956793,,
Stesso volto?,1 = Stesso volto\n2 = Volto diverso,People/Britney Spears/selected/im_23.jpg,12,10,2,19,80.0346269481524,1,0.52035121832705
Stesso volto?,1 = Stesso volto\n2 = Volto diverso,People/Britney Spears/selected/im_23.jpg,12,11,2,19,82.5502714165887,1,0.590825430650511
Stesso volto?,1 = Stesso volto\n2 = Volto diverso,People/Britney Spears/selected/im_23.jpg,12,12,2,19,85.0660476261146,1,0.53713067048011
Stesso volto?,1 = Stesso volto\n2 = Volto diverso,People/Tom Cruise/selected/im_01.jpg,12,13,2,19,87.581610825695,2,0.523658005260586
Stesso volto?,1 = Stesso volto\n2 = Volto diverso,People/Bill Clinton/selected/im_18.jpg,12,14,2,19,90.0972826689031,2,0.528091007430703
Stesso volto?,1 = Stesso volto\n2 = Volto diverso,People/Fiorello/selected/im_69.jpg,12,15,2,19,92.6130152498863,1,0.712459670330645
Stesso volto?,1 = Stesso volto\n2 = Volto diverso,People/Brad Pitt/selected/im_16.jpg,12,16,2,19,95.1286028301238,2,0.558962906756278
Stesso monumento?,1 = Stesso monumento \n2 = Monumento diverso,Monuments/18 Louvre copy.jpg,16,9,2,20,110.022727904601,,
Stesso monumento?,1 = Stesso monumento \n2 = Monumento diverso,Monuments/18 Louvre copy.jpg,16,10,2,20,112.538413862927,1,1.26186407655587
Stesso monumento?,1 = Stesso monumento \n2 = Monumento diverso,Monuments/42 Tour Eiffel copy.jpg,16,11,2,20,115.05402069105,2,1.00835144416851
Stesso monumento?,1 = Stesso monumento \n2 = Monumento diverso,Monuments/2 Altare della Patria copy.jpg,16,12,2,20,117.569698522489,2,0.994773557167719
Stesso monumento?,1 = Stesso monumento \n2 = Monumento diverso,Monuments/2 Altare della Patria copy.jpg,16,13,2,20,120.085470026976,2,0.739078642158347
Stesso monumento?,1 = Stesso monumento \n2 = Monumento diverso,Monuments/30 Ponte di Brooklyn  copy.jpg,16,14,2,20,122.601043064366,2,0.843607498805795
Stesso monumento?,1 = Stesso monumento \n2 = Monumento diverso,Monuments/38 Stonehenge copy.jpg,16,15,2,20,125.116693948763,2,0.729086850313251
Stesso monumento?,1 = Stesso monumento \n2 = Monumento diverso,Monuments/13 Duomo di Trento copy.jpg,16,16,2,20,127.632430807054,2,0.61440708596092
Stesso volto?,1 = Stesso volto\n2 = Volto diverso,People/Paolo Bonolis/selected/im_03.jpg,13,9,2,21,142.527198760949,,
Stesso volto?,1 = Stesso volto\n2 = Volto diverso,People/Matt Damon/selected/im_13.jpg,13,10,2,21,145.042146028156,2,0.597483916251804
Stesso volto?,1 = Stesso volto\n2 = Volto diverso,People/Mike Tyson/selected/im_04.jpg,13,11,2,21,147.557779803321,2,0.901912769431874
Stesso volto?,1 = Stesso volto\n2 = Volto diverso,People/Mike Tyson/selected/im_04.jpg,13,12,2,21,150.073497413725,1,0.8092363336782
Stesso volto?,1 = Stesso volto\n2 = Volto diverso,People/Justin Bieber/selected/im_08.jpg,13,13,2,21,152.58919406532,2,0.852618931621691
Stesso volto?,1 = Stesso volto\n2 = Volto diverso,People/Bill Clinton/selected/im_27.jpg,13,14,2,21,155.104803459828,2,0.759096872046939
Stesso volto?,1 = Stesso volto\n2 = Volto diverso,People/Filippo Inzaghi/selected/im_33.jpg,13,15,2,21,157.62049326773,2,0.763567514528404
Stesso volto?,1 = Stesso volto\n2 = Volto diverso,People/Filippo Inzaghi/selected/im_33.jpg,13,16,2,21,160.136185642017,1,0.550915151465233
Quanti fatti ricordi?,1 = Moltissimo\n2 = Molto\n3 = Poco\n4 = Pochissimo,People/Paris Hilton/selected/im_13.jpg,7,9,2,22,175.013553934075,3,1.1971381386611
Quanti fatti ricordi?,1 = Moltissimo\n2 = Molto\n3 = Poco\n4 = Pochissimo,People/George Bush/selected/im_03.jpg,7,10,2,22,177.529274966326,3,1.14159558136998
Quanti fatti ricordi?,1 = Moltissimo\n2 = Molto\n3 = Poco\n4 = Pochissimo,People/Angelino Alfano/selected/im_65.jpg,7,11,2,22,180.044916012916,3,1.14611284651073
Quanti fatti ricordi?,1 = Moltissimo\n2 = Molto\n3 = Poco\n4 = Pochissimo,People/Romano Prodi/selected/im_05.jpg,7,12,2,22,182.560595127547,2,1.03445500036469
Quanti fatti ricordi?,1 = Moltissimo\n2 = Molto\n3 = Poco\n4 = Pochissimo,People/Sabrina Ferilli/selected/im_07.jpg,7,13,2,22,185.076240879174,2,1.08285274211812
Quanti fatti ricordi?,1 = Moltissimo\n2 = Molto\n3 = Poco\n4 = Pochissimo,People/Matteo Renzi/selected/im_19.jpg,7,14,2,22,187.591989713928,2,1.12919737595621
Quanti fatti ricordi?,1 = Moltissimo\n2 = Molto\n3 = Poco\n4 = Pochissimo,People/Cameron Diaz/selected/im_79.jpg,7,15,2,22,190.107549491662,3,1.25674542189154
Quanti fatti ricordi?,1 = Moltissimo\n2 = Molto\n3 = Poco\n4 = Pochissimo,People/Barack Obama/selected/im_05.jpg,7,16,2,22,192.623232455871,2,0.883143941257003
Nome comune?,1 = Moltissimo\n2 = Molto\n3 = Poco\n4 = Pochissimo,People/George Bush/selected/im_15.jpg,6,9,2,23,207.517429389127,3,1.31553659472411
Nome comune?,1 = Moltissimo\n2 = Molto\n3 = Poco\n4 = Pochissimo,People/Giorgia Meloni/selected/im_24.jpg,6,10,2,23,210.0329994324,2,1.76318383998841
Nome comune?,1 = Moltissimo\n2 = Molto\n3 = Poco\n4 = Pochissimo,People/Donald Trump/selected/im_58.jpg,6,11,2,23,212.548653738644,3,1.2286229762467
Nome comune?,1 = Moltissimo\n2 = Molto\n3 = Poco\n4 = Pochissimo,People/Matteo Renzi/selected/im_15.jpg,6,12,2,23,215.064319593621,1,0.87292502434866
Nome comune?,1 = Moltissimo\n2 = Molto\n3 = Poco\n4 = Pochissimo,People/Arnold Schwarzenegger/selected/im_05.jpg,6,13,2,23,217.580007262868,2,1.73951236120593
Nome comune?,1 = Moltissimo\n2 = Molto\n3 = Poco\n4 = Pochissimo,People/Tom Cruise/selected/im_13.jpg,6,14,2,23,220.095660285921,2,2.10683004843122
Nome comune?,1 = Moltissimo\n2 = Molto\n3 = Poco\n4 = Pochissimo,People/George Clooney/selected/im_11.jpg,6,15,2,23,222.611321435857,2,1.83024604359707
Nome comune?,1 = Moltissimo\n2 = Molto\n3 = Poco\n4 = Pochissimo,People/Britney Spears/selected/im_55.jpg,6,16,2,23,225.127045889956,2,1.53470500902768
Stesso volto?,1 = Stesso volto\n2 = Volto diverso,People/Jim Carrey/selected/im_16.jpg,11,9,2,24,240.021180802243,,
Stesso volto?,1 = Stesso volto\n2 = Volto diverso,People/Giorgia Meloni/selected/im_49.jpg,11,10,2,24,242.5367478514,2,0.578557683136751
Stesso volto?,1 = Stesso volto\n2 = Volto diverso,People/Fiorello/selected/im_18.jpg,11,11,2,24,245.052413278647,2,0.681983849739481
Stesso volto?,1 = Stesso volto\n2 = Volto diverso,People/Barack Obama/selected/im_24.jpg,11,12,2,24,247.568058602543,2,0.768583086068247
Stesso volto?,1 = Stesso volto\n2 = Volto diverso,People/Barack Obama/selected/im_24.jpg,11,13,2,24,250.083749693636,1,0.572845765827878
Stesso volto?,1 = Stesso volto\n2 = Volto diverso,People/Hillary Clinton/selected/im_09.jpg,11,14,2,24,252.599439073809,2,0.657303353966199
Stesso volto?,1 = Stesso volto\n2 = Volto diverso,People/Silvio Berlusconi/selected/im_05.jpg,11,15,2,24,255.115071993512,2,0.903731053129377
Stesso volto?,1 = Stesso volto\n2 = Volto diverso,People/Silvio Berlusconi/selected/im_05.jpg,11,16,2,24,257.630733571179,2,0.568156980631102
Quanto affidabile?,1 = Moltissimo\n2 = Molto\n3 = Poco\n4 = Pochissimo,People/Michelle Hunziker/selected/im_29.jpg,4,9,2,25,272.525173027807,2,1.09635577622794
Quanto affidabile?,1 = Moltissimo\n2 = Molto\n3 = Poco\n4 = Pochissimo,People/Giorgia Meloni/selected/im_49.jpg,4,10,2,25,275.040518940134,3,1.42008512698703
Quanto affidabile?,1 = Moltissimo\n2 = Molto\n3 = Poco\n4 = Pochissimo,People/Michael Jackson/selected/im_08.jpg,4,11,2,25,277.556209175766,3,1.70449403935709
Quanto affidabile?,1 = Moltissimo\n2 = Molto\n3 = Poco\n4 = Pochissimo,People/Brad Pitt/selected/im_06.jpg,4,12,2,25,280.07181643162,2,1.24897954120752
Quanto affidabile?,1 = Moltissimo\n2 = Molto\n3 = Poco\n4 = Pochissimo,People/Daniel Radcliffe/selected/im_56.jpg,4,13,2,25,282.587550723527,2,1.27441498187
Quanto affidabile?,1 = Moltissimo\n2 = Molto\n3 = Poco\n4 = Pochissimo,People/Paris Hilton/selected/im_02.jpg,4,14,2,25,285.10315712392,3,1.21790917478393
Quanto affidabile?,1 = Moltissimo\n2 = Molto\n3 = Poco\n4 = Pochissimo,People/Arnold Schwarzenegger/selected/im_13.jpg,4,15,2,25,287.618890132635,2,0.964174977832954
Quanto affidabile?,1 = Moltissimo\n2 = Molto\n3 = Poco\n4 = Pochissimo,People/Matteo Renzi/selected/im_14.jpg,4,16,2,25,290.134503804451,3,1.24868141282786
Stesso monumento?,1 = Stesso monumento \n2 = Monumento diverso,Monuments/39 Taj Mahal copy.jpg,15,9,2,26,305.011936683863,,
Stesso monumento?,1 = Stesso monumento \n2 = Monumento diverso,Monuments/39 Taj Mahal copy.jpg,15,10,2,26,307.527646167382,1,0.988188641265879
Stesso monumento?,1 = Stesso monumento \n2 = Monumento diverso,Monuments/40 Teatro dell Opera copy.jpg,15,11,2,26,310.0432820812,2,0.873653449927588
Stesso monumento?,1 = Stesso monumento \n2 = Monumento diverso,Monuments/41 Torre di Pisa copy.jpg,15,12,2,26,312.558935104253,2,0.817097170604029
Stesso monumento?,1 = Stesso monumento \n2 = Monumento diverso,Monuments/23 Palazzo vecchio copy.jpg,15,13,2,26,315.074611224769,2,0.762505458915257
Stesso monumento?,1 = Stesso monumento \n2 = Monumento diverso,Monuments/23 Palazzo vecchio copy.jpg,15,14,2,26,317.590304454516,1,0.519913649701266
Stesso monumento?,1 = Stesso monumento \n2 = Monumento diverso,Monuments/45 White House copy.jpg,15,15,2,26,320.105967743108,2,0.51830067679839
Stesso monumento?,1 = Stesso monumento \n2 = Monumento diverso,Monuments/45 White House copy.jpg,15,16,2,26,322.621648996394,1,0.51976052207101
Volto distintivo?,1 = Moltissimo\n2 = Molto\n3 = Poco\n4 = Pochissimo,People/Sandra Bullock/selected/im_02.jpg,9,9,2,27,337.515707772596,2,1.15929166066053
Volto distintivo?,1 = Moltissimo\n2 = Molto\n3 = Poco\n4 = Pochissimo,People/Cameron Diaz/selected/im_107.jpg,9,10,2,27,340.031361651108,2,0.884741943582412
Volto distintivo?,1 = Moltissimo\n2 = Molto\n3 = Poco\n4 = Pochissimo,People/Silvio Berlusconi/selected/Silvio Berlusconi_6.jpg,9,11,2,27,342.547014246429,2,1.28823667543656
Volto distintivo?,1 = Moltissimo\n2 = Molto\n3 = Poco\n4 = Pochissimo,People/Julia Roberts/selected/im_05.jpg,9,12,2,27,345.06267154679,1,1.19463634112071
Volto distintivo?,1 = Moltissimo\n2 = Molto\n3 = Poco\n4 = Pochissimo,People/Bill Clinton/selected/im_27.jpg,9,13,2,27,347.578369909308,2,1.18003917158785
Volto distintivo?,1 = Moltissimo\n2 = Molto\n3 = Poco\n4 = Pochissimo,People/Matteo Renzi/selected/im_15.jpg,9,14,2,27,350.094027637399,2,1.38448637441979
Volto distintivo?,1 = Moltissimo\n2 = Molto\n3 = Poco\n4 = Pochissimo,People/Roberto Maroni/selected/im_17.jpg,9,15,2,27,352.609696914222,2,0.947900248040241
Volto distintivo?,1 = Moltissimo\n2 = Molto\n3 = Poco\n4 = Pochissimo,People/Giorgia Meloni/selected/im_30.jpg,9,16,2,27,355.125411102779,2,1.51230132438286
Che lavoro fa?,1 = Presentatore TV/attore\n2 = Cantante/Musicista\n3 = Politico/Sportivo\n4 = Altro/Non so,People/Angelino Alfano/selected/im_12.jpg,8,9,2,28,370.019457474787,3,1.08182276631487
Che lavoro fa?,1 = Presentatore TV/attore\n2 = Cantante/Musicista\n3 = Politico/Sportivo\n4 = Altro/Non so,People/Matteo Renzi/selected/im_72.jpg,8,10,2,28,372.535135306227,3,0.725221446937212
Che lavoro fa?,1 = Presentatore TV/attore\n2 = Cantante/Musicista\n3 = Politico/Sportivo\n4 = Altro/Non so,People/Roberto Maroni/selected/im_20.jpg,8,11,2,28,375.05076865366,3,0.77069094352737
Che lavoro fa?,1 = Presentatore TV/attore\n2 = Cantante/Musicista\n3 = Politico/Sportivo\n4 = Altro/Non so,People/Tom Cruise/selected/im_21.jpg,8,12,2,28,377.566488830451,1,1.09408067602089
Che lavoro fa?,1 = Presentatore TV/attore\n2 = Cantante/Musicista\n3 = Politico/Sportivo\n4 = Altro/Non so,People/Michelle Hunziker/selected/im_19.jpg,8,13,2,28,380.082133298885,1,1.15952819580161
Che lavoro fa?,1 = Presentatore TV/attore\n2 = Cantante/Musicista\n3 = Politico/Sportivo\n4 = Altro/Non so,People/Robin Williams/selected/im_25.jpg,8,14,2,28,382.597793165631,1,1.02305255229112
Che lavoro fa?,1 = Presentatore TV/attore\n2 = Cantante/Musicista\n3 = Politico/Sportivo\n4 = Altro/Non so,People/Laura Pausini/selected/im_17.jpg,8,15,2,28,385.11343934499,2,0.867417990100876
Che lavoro fa?,1 = Presentatore TV/attore\n2 = Cantante/Musicista\n3 = Politico/Sportivo\n4 = Altro/Non so,People/Giorgia Meloni/selected/im_17.jpg,8,16,2,28,387.62920186713,3,0.931751698839435
Quanto attraente?,1 = Moltissimo\n2 = Molto\n3 = Poco\n4 = Pochissimo,People/Angelino Alfano/selected/im_14.jpg,2,9,2,29,402.523242250907,4,1.48330331375837
Quanto attraente?,1 = Moltissimo\n2 = Molto\n3 = Poco\n4 = Pochissimo,People/Giorgio Napolitano/selected/im_x2.jpg,2,10,2,29,405.038876453804,4,1.56987089800714
Quanto attraente?,1 = Moltissimo\n2 = Molto\n3 = Poco\n4 = Pochissimo,People/Daniel Radcliffe/selected/im_08.jpg,2,11,2,29,407.554536320547,3,1.43729615953453
Quanto attraente?,1 = Moltissimo\n2 = Molto\n3 = Poco\n4 = Pochissimo,People/Laura Pausini/selected/im_36.jpg,2,12,2,29,410.070206880562,3,1.4406367372012
Quanto attraente?,1 = Moltissimo\n2 = Molto\n3 = Poco\n4 = Pochissimo,People/Fiorello/selected/im_18.jpg,2,13,2,29,412.585884712002,2,0.96509759320179
Quanto attraente?,1 = Moltissimo\n2 = Molto\n3 = Poco\n4 = Pochissimo,People/Paolo Bonolis/selected/im_11.jpg,2,14,2,29,415.101585213175,3,1.33143663232113
Quanto attraente?,1 = Moltissimo\n2 = Molto\n3 = Poco\n4 = Pochissimo,People/George Clooney/selected/im_08 (1).jpg,2,15,2,29,417.617225404301,1,1.17600609773035
Quanto attraente?,1 = Moltissimo\n2 = Molto\n3 = Poco\n4 = Pochissimo,People/Michelle Hunziker/selected/im_11.jpg,2,16,2,29,420.13290836851,1,0.920404855771267
Memoria remota?,1 = Moltissimo\n2 = Molto\n3 = Poco\n4 = Pochissimo,People/Cameron Diaz/selected/im_32.jpg,1,9,2,30,435.027037292566,1,1.6467940078328
Memoria remota?,1 = Moltissimo\n2 = Molto\n3 = Poco\n4 = Pochissimo,People/Roberto Maroni/selected/im_31.jpg,1,10,2,30,437.542616318187,2,1.71136724582902
Memoria remota?,1 = Moltissimo\n2 = Molto\n3 = Poco\n4 = Pochissimo,People/Giorgio Napolitano/selected/im_06.jpg,1,11,2,30,440.058308264743,2,0.956688833102817
Memoria remota?,1 = Moltissimo\n2 = Molto\n3 = Poco\n4 = Pochissimo,People/Justin Bieber/selected/im_32.jpg,1,12,2,30,442.57403229111,3,1.68008044761154
Memoria remota?,1 = Moltissimo\n2 = Molto\n3 = Poco\n4 = Pochissimo,People/Brad Pitt/selected/im_12.jpg,1,13,2,30,445.089649812504,1,1.60869944596197
Memoria remota?,1 = Moltissimo\n2 = Molto\n3 = Poco\n4 = Pochissimo,People/Filippo Inzaghi/selected/im_03.jpg,1,14,2,30,447.605314812019,2,1.31208095746661
Memoria remota?,1 = Moltissimo\n2 = Molto\n3 = Poco\n4 = Pochissimo,People/Johnny Depp/selected/im_09.jpg,1,15,2,30,450.120963130032,1,0.937526064846679
Memoria remota?,1 = Moltissimo\n2 = Molto\n3 = Poco\n4 = Pochissimo,People/Romano Prodi/selected/im_12.jpg,1,16,2,30,452.636631123662,1,1.26196972606886
Quanto familiare?,1 = Moltissimo\n2 = Molto\n3 = Poco\n4 = Pochissimo,People/Donald Trump/selected/im_06.jpg,5,9,2,31,467.514116613962,2,1.85198289590153
Quanto familiare?,1 = Moltissimo\n2 = Molto\n3 = Poco\n4 = Pochissimo,People/Arnold Schwarzenegger/selected/im_45.jpg,5,10,2,31,470.029734135356,2,0.956427061844806
Quanto familiare?,1 = Moltissimo\n2 = Molto\n3 = Poco\n4 = Pochissimo,People/Angelino Alfano/selected/im_73.jpg,5,11,2,31,472.545394857563,2,1.02185533373995
Quanto familiare?,1 = Moltissimo\n2 = Molto\n3 = Poco\n4 = Pochissimo,People/Cameron Diaz/selected/im_14.jpg,5,12,2,31,475.061050019269,2,0.688387407775735
Quanto familiare?,1 = Moltissimo\n2 = Molto\n3 = Poco\n4 = Pochissimo,People/Matt Damon/selected/im_09.jpg,5,13,2,31,477.576747098594,2,1.01471094593035
Quanto familiare?,1 = Moltissimo\n2 = Molto\n3 = Poco\n4 = Pochissimo,People/Paolo Bonolis/selected/im_20.jpg,5,14,2,31,480.092405254416,2,0.661137105264061
Quanto familiare?,1 = Moltissimo\n2 = Molto\n3 = Poco\n4 = Pochissimo,People/Johnny Depp/selected/im_27.jpg,5,15,2,31,482.608040740504,1,0.767607859808777
Quanto familiare?,1 = Moltissimo\n2 = Molto\n3 = Poco\n4 = Pochissimo,People/Michael Jackson/selected/im_28.jpg,5,16,2,31,485.123736536638,1,1.0150330272354
Stesso monumento?,1 = Stesso monumento \n2 = Monumento diverso,Monuments/28 Piramidi di Ghiza copy.jpg,14,9,2,32,500.017834236343,,
Stesso monumento?,1 = Stesso monumento \n2 = Monumento diverso,Monuments/28 Piramidi di Ghiza copy.jpg,14,10,2,32,502.533501374512,1,0.854918412485858
Stesso monumento?,1 = Stesso monumento \n2 = Monumento diverso,Monuments/14 Empire State Building copy.jpg,14,11,2,32,505.049142848831,2,0.659364161034318
Stesso monumento?,1 = Stesso monumento \n2 = Monumento diverso,Monuments/38 Stonehenge copy.jpg,14,12,2,32,507.564812125654,2,1.12380796768412
Stesso monumento?,1 = Stesso monumento \n2 = Monumento diverso,Monuments/31 Ponte di Rialto copy.jpg,14,13,2,32,510.080479263823,2,0.828220738187156
Stesso monumento?,1 = Stesso monumento \n2 = Monumento diverso,Monuments/31 Ponte di Rialto copy.jpg,14,14,2,32,512.596199440613,1,0.612592224111722
Stesso monumento?,1 = Stesso monumento \n2 = Monumento diverso,Monuments/16 Golden Gate copy.jpg,14,15,2,32,515.11182893847,2,0.641064981293312
Stesso monumento?,1 = Stesso monumento \n2 = Monumento diverso,Monuments/42 Tour Eiffel copy.jpg,14,16,2,32,517.627505486716,2,0.72549818877269
Stesso monumento?,1 = Stesso monumento \n2 = Monumento diverso,Monuments/18 Louvre copy.jpg,15,17,3,33,12.5116811147018,,
Stesso monumento?,1 = Stesso monumento \n2 = Monumento diverso,Monuments/18 Louvre copy.jpg,15,18,3,33,15.0272460252054,1,0.519988930325781
Stesso monumento?,1 = Stesso monumento \n2 = Monumento diverso,Monuments/35 Santa Maria del Fiore copy.jpg,15,19,3,33,17.5429816003034,2,0.618475661474804
Stesso monumento?,1 = Stesso monumento \n2 = Monumento diverso,Monuments/3 Ara Pacis copy.jpg,15,20,3,33,20.0586076763138,2,0.722859945104574
Stesso monumento?,1 = Stesso monumento \n2 = Monumento diverso,Monuments/24 Pantheon copy.jpg,15,21,3,33,22.5742880741382,2,0.627240293611976
Stesso monumento?,1 = Stesso monumento \n2 = Monumento diverso,Monuments/42 Tour Eiffel copy.jpg,15,22,3,33,25.0899586341529,2,0.519663427176056
Stesso monumento?,1 = Stesso monumento \n2 = Monumento diverso,Monuments/43 Tower Bridge copy.jpg,15,23,3,33,27.6056159345135,2,0.594108692388545
Stesso monumento?,1 = Stesso monumento \n2 = Monumento diverso,Monuments/43 Tower Bridge copy.jpg,15,24,3,33,30.1212929104895,1,0.778581721608134
Sicuramente conoscere\n(nome e cognome)?,1 = Moltissimo\n2 = Molto\n3 = Poco\n4 = Pochissimo,People/Fiorello/selected/im_77.jpg,10,17,3,34,45.0154684572044,2,0.94702511079231
Sicuramente conoscere\n(nome e cognome)?,1 = Moltissimo\n2 = Molto\n3 = Poco\n4 = Pochissimo,People/Silvio Berlusconi/selected/im_08.jpg,10,18,3,34,47.5310252408235,1,0.85148202311575
Sicuramente conoscere\n(nome e cognome)?,1 = Moltissimo\n2 = Molto\n3 = Poco\n4 = Pochissimo,People/Donald Trump/selected/im_14.jpg,10,19,3,34,50.0466885294154,1,0.877073157795166
Sicuramente conoscere\n(nome e cognome)?,1 = Moltissimo\n2 = Molto\n3 = Poco\n4 = Pochissimo,People/Arnold Schwarzenegger/selected/im_11.jpg,10,20,3,34,52.5623779095858,1,0.802374248210981
Sicuramente conoscere\n(nome e cognome)?,1 = Moltissimo\n2 = Molto\n3 = Poco\n4 = Pochissimo,People/Roberto Maroni/selected/im_37.jpg,10,21,3,34,55.0780433368309,1,0.909880111328675
Sicuramente conoscere\n(nome e cognome)?,1 = Moltissimo\n2 = Molto\n3 = Poco\n4 = Pochissimo,People/Sandra Bullock/selected/im_08.jpg,10,22,3,34,57.59369507669,2,1.05334316543849
Sicuramente conoscere\n(nome e cognome)?,1 = Moltissimo\n2 = Molto\n3 = Poco\n4 = Pochissimo,People/Mike Tyson/selected/im_04.jpg,10,23,3,34,60.1093459610875,2,1.13779134349716
Sicuramente conoscere\n(nome e cognome)?,1 = Moltissimo\n2 = Molto\n3 = Poco\n4 = Pochissimo,People/Michael Jackson/selected/im_06.jpg,10,24,3,34,62.6250323471431,2,0.706154062650967
Stesso volto?,1 = Stesso volto\n2 = Volto diverso,People/Johnny Depp/selected/im_68.jpg,11,17,3,35,77.5192258585521,,
Stesso volto?,1 = Stesso volto\n2 = Volto diverso,People/Britney Spears/selected/im_24.jpg,11,18,3,35,80.034830548022,2,0.711912602617303
Stesso volto?,1 = Stesso volto\n2 = Volto diverso,People/Britney Spears/selected/im_24.jpg,11,19,3,35,82.5504668895719,1,0.838401587052431
Stesso volto?,1 = Stesso volto\n2 = Volto diverso,People/Daniel Radcliffe/selected/im_02.jpg,11,20,3,35,85.0661768008213,2,0.744775161158032
Stesso volto?,1 = Stesso volto\n2 = Volto diverso,People/Michelle Obama/selected/im_28.jpg,11,21,3,35,87.5817883339842,2,0.769365833461052
Stesso volto?,1 = Stesso volto\n2 = Volto diverso,People/Michelle Obama/selected/im_28.jpg,11,22,3,35,90.0974328024204,1,0.693722066504051
Stesso volto?,1 = Stesso volto\n2 = Volto diverso,People/Donald Trump/selected/im_18.jpg,11,23,3,35,92.6131179052827,2,0.823315521196491
Stesso volto?,1 = Stesso volto\n2 = Volto diverso,People/Donald Trump/selected/im_18.jpg,11,24,3,35,95.1287696451418,1,0.628579091064239
Quanto amichevole?,1 = Moltissimo\n2 = Molto\n3 = Poco\n4 = Pochissimo,People/Robin Williams/selected/im_10.jpg,3,17,3,36,110.02288402635,1,0.736064850834737
Quanto amichevole?,1 = Moltissimo\n2 = Molto\n3 = Poco\n4 = Pochissimo,People/Sandra Bullock/selected/im_03.jpg,3,18,3,36,112.53855672502,2,0.82148183919162
Quanto amichevole?,1 = Moltissimo\n2 = Molto\n3 = Poco\n4 = Pochissimo,People/Silvio Berlusconi/selected/Silvio Berlusconi_8.jpg,3,19,3,36,115.054258509384,4,1.14482794314063
Quanto amichevole?,1 = Moltissimo\n2 = Molto\n3 = Poco\n4 = Pochissimo,People/Paolo Bonolis/selected/im_16.jpg,3,20,3,36,117.569934629899,2,0.971387802572281
Quanto amichevole?,1 = Moltissimo\n2 = Molto\n3 = Poco\n4 = Pochissimo,People/Giorgio Napolitano/selected/im_07.jpg,3,21,3,36,120.085547446255,2,1.45690205691426
Quanto amichevole?,1 = Moltissimo\n2 = Molto\n3 = Poco\n4 = Pochissimo,People/Donald Trump/selected/im_64.jpg,3,22,3,36,122.601180793688,4,0.984327515196128
Quanto amichevole?,1 = Moltissimo\n2 = Molto\n3 = Poco\n4 = Pochissimo,People/Brad Pitt/selected/im_10.jpg,3,23,3,36,125.116888994016,2,0.949634696497014
Quanto amichevole?,1 = Moltissimo\n2 = Molto\n3 = Poco\n4 = Pochissimo,People/Matteo Salvini/selected/im_14.jpg,3,24,3,36,127.632546722107,4,0.854079204626032
Volto distintivo?,1 = Moltissimo\n2 = Molto\n3 = Poco\n4 = Pochissimo,People/Angelino Alfano/selected/im_14.jpg,9,17,3,37,142.526697032703,2,1.32063257965638
Volto distintivo?,1 = Moltissimo\n2 = Molto\n3 = Poco\n4 = Pochissimo,People/Rihanna/selected/im_15.jpg,9,18,3,37,145.042338507023,2,1.16695873552635
Volto distintivo?,1 = Moltissimo\n2 = Molto\n3 = Poco\n4 = Pochissimo,People/Mike Tyson/selected/im_01.jpg,9,19,3,37,147.557941913299,1,1.23359534697192
Volto distintivo?,1 = Moltissimo\n2 = Molto\n3 = Poco\n4 = Pochissimo,People/Barack Obama/selected/im_11.jpg,9,20,3,37,150.073642414472,2,1.25786821527981
Volto distintivo?,1 = Moltissimo\n2 = Molto\n3 = Poco\n4 = Pochissimo,People/Paolo Bonolis/selected/im_38.jpg,9,21,3,37,152.589292871138,2,0.982303065247834
Volto distintivo?,1 = Moltissimo\n2 = Molto\n3 = Poco\n4 = Pochissimo,People/Justin Bieber/selected/im_32.jpg,9,22,3,37,155.104941189151,3,1.24988846918859
Volto distintivo?,1 = Moltissimo\n2 = Molto\n3 = Poco\n4 = Pochissimo,People/Britney Spears/selected/im_13.jpg,9,23,3,37,157.620625864283,2,1.13417102987842
Volto distintivo?,1 = Moltissimo\n2 = Molto\n3 = Poco\n4 = Pochissimo,People/Arnold Schwarzenegger/selected/im_12.jpg,9,24,3,37,160.136304551184,2,0.880688766377716
Stesso volto?,1 = Stesso volto\n2 = Volto diverso,People/Brad Pitt/selected/im_04.jpg,13,17,3,38,175.013800307026,,
Stesso volto?,1 = Stesso volto\n2 = Volto diverso,People/Brad Pitt/selected/im_04.jpg,13,18,3,38,177.529407990611,1,0.780146788660204
Stesso volto?,1 = Stesso volto\n2 = Volto diverso,People/Robin Williams/selected/im_14.jpg,13,19,3,38,180.045066146433,2,0.88559911613811
Stesso volto?,1 = Stesso volto\n2 = Volto diverso,People/Laura Pausini/selected/im_07.jpg,13,20,3,38,182.560719169483,2,0.890132635047848
Stesso volto?,1 = Stesso volto\n2 = Volto diverso,People/Arnold Schwarzenegger/selected/im_01.jpg,13,21,3,38,185.076441057197,2,0.816399541643477
Stesso volto?,1 = Stesso volto\n2 = Volto diverso,People/Hillary Clinton/selected/im_13.jpg,13,22,3,38,187.592085953363,2,1.02094555029544
Stesso volto?,1 = Stesso volto\n2 = Volto diverso,People/Daniel Radcliffe/selected/im_07.jpg,13,23,3,38,190.10775223607,2,0.748374943699673
Stesso volto?,1 = Stesso volto\n2 = Volto diverso,People/Daniel Radcliffe/selected/im_07.jpg,13,24,3,38,192.623387294427,2,0.551747515632087
Quanto familiare?,1 = Moltissimo\n2 = Molto\n3 = Poco\n4 = Pochissimo,People/Laura Pausini/selected/im_07.jpg,5,17,3,39,207.517486277326,2,1.50040655813973
Quanto familiare?,1 = Moltissimo\n2 = Molto\n3 = Poco\n4 = Pochissimo,People/Bill Clinton/selected/im_12.jpg,5,18,3,39,210.033150849111,2,1.64483585616108
Quanto familiare?,1 = Moltissimo\n2 = Molto\n3 = Poco\n4 = Pochissimo,People/Barack Obama/selected/im_06.jpg,5,19,3,39,212.548849639359,2,0.769120315972032
Quanto familiare?,1 = Moltissimo\n2 = Molto\n3 = Poco\n4 = Pochissimo,People/Giorgia Meloni/selected/im_24.jpg,5,20,3,39,215.064461600252,2,1.11356467011865
Quanto familiare?,1 = Moltissimo\n2 = Molto\n3 = Poco\n4 = Pochissimo,People/Julia Roberts/selected/im_09.jpg,5,21,3,39,217.580139859421,2,1.51911593173099
Quanto familiare?,1 = Moltissimo\n2 = Molto\n3 = Poco\n4 = Pochissimo,People/Paris Hilton/selected/im_14.jpg,5,22,3,39,220.095829239594,2,1.09039149773889
Quanto familiare?,1 = Moltissimo\n2 = Molto\n3 = Poco\n4 = Pochissimo,People/Justin Bieber/selected/im_31.jpg,5,23,3,39,222.611503649186,3,1.29582633102291
Quanto familiare?,1 = Moltissimo\n2 = Molto\n3 = Poco\n4 = Pochissimo,People/Sandra Bullock/selected/im_04.jpg,5,24,3,39,225.127150684006,2,0.762257375041372
Stesso monumento?,1 = Stesso monumento \n2 = Monumento diverso,Monuments/13 Duomo di Trento copy.jpg,16,17,3,40,240.021261215637,,
Stesso monumento?,1 = Stesso monumento \n2 = Monumento diverso,Monuments/36 Sfinge copy.jpg,16,18,3,40,242.536924076498,2,0.702213378650413
Stesso monumento?,1 = Stesso monumento \n2 = Monumento diverso,Monuments/32 Ponte vecchio copy.jpg,16,19,3,40,245.052569400394,2,0.707661386044492
Stesso monumento?,1 = Stesso monumento \n2 = Monumento diverso,Monuments/1 Acropoli copy.jpg,16,20,3,40,247.56823525537,2,0.520040685754793
Stesso monumento?,1 = Stesso monumento \n2 = Monumento diverso,Monuments/1 Acropoli copy.jpg,16,21,3,40,250.083952865774,1,0.546353830050066
Stesso monumento?,1 = Stesso monumento \n2 = Monumento diverso,Monuments/21 Muraglia Cinese copy.jpg,16,22,3,40,252.599569531707,2,0.519899106855519
Stesso monumento?,1 = Stesso monumento \n2 = Monumento diverso,Monuments/29 Ponte dei Sospiri copy.jpg,16,23,3,40,255.115288853036,2,0.743343973850642
Stesso monumento?,1 = Stesso monumento \n2 = Monumento diverso,Monuments/27 Piazza San Pietro copy.jpg,16,24,3,40,257.630907229892,2,0.766766085565905
Quanto attraente?,1 = Moltissimo\n2 = Molto\n3 = Poco\n4 = Pochissimo,People/Bill Gates/selected/im_43.jpg,2,17,3,41,272.524968572479,3,1.15329872420625
Quanto attraente?,1 = Moltissimo\n2 = Molto\n3 = Poco\n4 = Pochissimo,People/Matt Damon/selected/im_13.jpg,2,18,3,41,275.040665224073,2,0.917691759210356
Quanto attraente?,1 = Moltissimo\n2 = Molto\n3 = Poco\n4 = Pochissimo,People/Arnold Schwarzenegger/selected/im_12.jpg,2,19,3,41,277.556322096703,2,1.00322124076956
Quanto attraente?,1 = Moltissimo\n2 = Molto\n3 = Poco\n4 = Pochissimo,People/George Bush/selected/im_03.jpg,2,20,3,41,280.072045695339,3,1.08749960969544
Quanto attraente?,1 = Moltissimo\n2 = Molto\n3 = Poco\n4 = Pochissimo,People/Tom Cruise/selected/im_17.jpg,2,21,3,41,282.587659367155,2,0.831100649766086
Quanto attraente?,1 = Moltissimo\n2 = Molto\n3 = Poco\n4 = Pochissimo,People/Donald Trump/selected/im_24.jpg,2,22,3,41,285.103339337249,4,0.955509151515798
Quanto attraente?,1 = Moltissimo\n2 = Molto\n3 = Poco\n4 = Pochissimo,People/Robin Williams/selected/im_14.jpg,2,23,3,41,287.618998348531,3,1.43997803174534
Quanto attraente?,1 = Moltissimo\n2 = Molto\n3 = Poco\n4 = Pochissimo,People/Matteo Renzi/selected/im_16.jpg,2,24,3,41,290.134681740472,4,1.08435963777993
Quanto affidabile?,1 = Moltissimo\n2 = Molto\n3 = Poco\n4 = Pochissimo,People/Justin Bieber/selected/im_38.jpg,4,17,3,42,305.012065430838,3,1.2275754634793
Quanto affidabile?,1 = Moltissimo\n2 = Molto\n3 = Poco\n4 = Pochissimo,People/Rihanna/selected/im_16 (1).jpg,4,18,3,42,307.527764221088,3,1.31300100645058
Quanto affidabile?,1 = Moltissimo\n2 = Molto\n3 = Poco\n4 = Pochissimo,People/Giorgio Napolitano/selected/im_41.jpg,4,19,3,42,310.043398851714,2,1.37644589055526
Quanto affidabile?,1 = Moltissimo\n2 = Molto\n3 = Poco\n4 = Pochissimo,People/Tom Cruise/selected/im_11.jpg,4,20,3,42,312.559123305811,2,1.22282422958233
Quanto affidabile?,1 = Moltissimo\n2 = Molto\n3 = Poco\n4 = Pochissimo,People/Julia Roberts/selected/im_02.jpg,4,21,3,42,315.074763924669,2,0.890239995482261
Quanto affidabile?,1 = Moltissimo\n2 = Molto\n3 = Poco\n4 = Pochissimo,People/Bill Clinton/selected/im_19.jpg,4,22,3,42,317.590423791415,3,1.33961099593216
Quanto affidabile?,1 = Moltissimo\n2 = Molto\n3 = Poco\n4 = Pochissimo,People/Sabrina Ferilli/selected/im_03.jpg,4,23,3,42,320.10608879093,2,0.964018000624492
Quanto affidabile?,1 = Moltissimo\n2 = Molto\n3 = Poco\n4 = Pochissimo,People/Jim Carrey/selected/im_07.jpg,4,24,3,42,322.621750368597,2,1.368468283119
Nome comune?,1 = Moltissimo\n2 = Molto\n3 = Poco\n4 = Pochissimo,People/Daniel Radcliffe/selected/im_05.jpg,6,17,3,43,337.515862611152,3,1.77604356694974
Nome comune?,1 = Moltissimo\n2 = Molto\n3 = Poco\n4 = Pochissimo,People/Barack Obama/selected/im_19.jpg,6,18,3,43,340.031518200589,3,1.6805141666573
Nome comune?,1 = Moltissimo\n2 = Molto\n3 = Poco\n4 = Pochissimo,People/Robin Williams/selected/im_24.jpg,6,19,3,43,342.547181489179,3,1.20686987016961
Nome comune?,1 = Moltissimo\n2 = Molto\n3 = Poco\n4 = Pochissimo,People/Matt Damon/selected/im_21.jpg,6,20,3,43,345.062824246692,3,1.15326322254987
Nome comune?,1 = Moltissimo\n2 = Molto\n3 = Poco\n4 = Pochissimo,People/Filippo Inzaghi/selected/im_14.jpg,6,21,3,43,347.57853287475,2,1.17965464158624
Nome comune?,1 = Moltissimo\n2 = Molto\n3 = Poco\n4 = Pochissimo,People/Cameron Diaz/selected/im_78.jpg,6,22,3,43,350.094173921338,3,1.50422191701182
Nome comune?,1 = Moltissimo\n2 = Molto\n3 = Poco\n4 = Pochissimo,People/Johnny Depp/selected/im_16.jpg,6,23,3,43,352.609819245235,2,1.87064479137189
Nome comune?,1 = Moltissimo\n2 = Molto\n3 = Poco\n4 = Pochissimo,People/Angelina Jolie/selected/im_15.jpg,6,24,3,43,355.125524879177,2,2.11394192869739
Memoria remota?,1 = Moltissimo\n2 = Molto\n3 = Poco\n4 = Pochissimo,People/Bill Clinton/selected/im_27.jpg,1,17,3,44,370.019689304891,3,1.28246059850608
Memoria remota?,1 = Moltissimo\n2 = Molto\n3 = Poco\n4 = Pochissimo,People/Mike Tyson/selected/im_04.jpg,1,18,3,44,372.535261486819,3,1.18589651737238
Memoria remota?,1 = Moltissimo\n2 = Molto\n3 = Poco\n4 = Pochissimo,People/Barack Obama/selected/im_12.jpg,1,19,3,44,375.050920925833,2,1.41047658195203
Memoria remota?,1 = Moltissimo\n2 = Molto\n3 = Poco\n4 = Pochissimo,People/Matteo Salvini/selected/im_11.jpg,1,20,3,44,377.566604317772,2,1.69676622671795
Memoria remota?,1 = Moltissimo\n2 = Molto\n3 = Poco\n4 = Pochissimo,People/Angelino Alfano/selected/im_68.jpg,1,21,3,44,380.082274450057,2,1.34126460326479
Memoria remota?,1 = Moltissimo\n2 = Molto\n3 = Poco\n4 = Pochissimo,People/Donald Trump/selected/im_15.jpg,1,22,3,44,382.597941160493,3,1.26568927323933
Memoria remota?,1 = Moltissimo\n2 = Molto\n3 = Poco\n4 = Pochissimo,People/Matt Damon/selected/im_19.jpg,1,23,3,44,385.113596322199,2,1.47005862906371
Memoria remota?,1 = Moltissimo\n2 = Molto\n3 = Poco\n4 = Pochissimo,People/Daniel Radcliffe/selected/im_16.jpg,1,24,3,44,387.629266454484,2,1.19547512125064
Stesso volto?,1 = Stesso volto\n2 = Volto diverso,People/Arnold Schwarzenegger/selected/im_45.jpg,12,17,3,45,402.523328652533,,
Stesso volto?,1 = Stesso volto\n2 = Volto diverso,People/Laura Pausini/selected/im_05.jpg,12,18,3,45,405.039035569667,2,0.696374853021553
Stesso volto?,1 = Stesso volto\n2 = Volto diverso,People/Laura Pausini/selected/im_05.jpg,12,19,3,45,407.554691586834,1,0.761800558530012
Stesso volto?,1 = Stesso volto\n2 = Volto diverso,People/Hillary Clinton/selected/im_13.jpg,12,20,3,45,410.070333061154,2,0.520257973010303
Stesso volto?,1 = Stesso volto\n2 = Volto diverso,People/Hillary Clinton/selected/im_13.jpg,12,21,3,45,412.586026718633,1,0.825657347410015
Stesso volto?,1 = Stesso volto\n2 = Volto diverso,People/George Bush/selected/im_15.jpg,12,22,3,45,415.101678458492,2,0.730115970654879
Stesso volto?,1 = Stesso volto\n2 = Volto diverso,People/George Bush/selected/im_15.jpg,12,23,3,45,417.6173503017,1,0.797534474033455
Stesso volto?,1 = Stesso volto\n2 = Volto diverso,People/Daniel Radcliffe/selected/im_05.jpg,12,24,3,45,420.132999902906,2,0.801985440899443
Che lavoro fa?,1 = Presentatore TV/attore\n2 = Cantante/Musicista\n3 = Politico/Sportivo\n4 = Altro/Non so,People/Michael Jackson/selected/im_15.jpg,8,17,3,46,435.027146363926,2,0.97052977455678
Che lavoro fa?,1 = Presentatore TV/attore\n2 = Cantante/Musicista\n3 = Politico/Sportivo\n4 = Altro/Non so,People/Rihanna/selected/im_31.jpg,8,18,3,46,437.542781850012,2,1.05489069552823
Che lavoro fa?,1 = Presentatore TV/attore\n2 = Cantante/Musicista\n3 = Politico/Sportivo\n4 = Altro/Non so,People/Brad Pitt/selected/im_15.jpg,8,19,3,46,440.058466525144,1,0.839396488929196
Che lavoro fa?,1 = Presentatore TV/attore\n2 = Cantante/Musicista\n3 = Politico/Sportivo\n4 = Altro/Non so,People/Hillary Clinton/selected/im_31.jpg,8,20,3,46,442.574080196962,3,0.88391642311035
Che lavoro fa?,1 = Presentatore TV/attore\n2 = Cantante/Musicista\n3 = Politico/Sportivo\n4 = Altro/Non so,People/Matteo Salvini/selected/im_77.jpg,8,21,3,46,445.089785403174,3,0.929178897986276
Che lavoro fa?,1 = Presentatore TV/attore\n2 = Cantante/Musicista\n3 = Politico/Sportivo\n4 = Altro/Non so,People/Matt Damon/selected/im_13.jpg,8,22,3,46,447.60545168588,1,1.17262916294385
Che lavoro fa?,1 = Presentatore TV/attore\n2 = Cantante/Musicista\n3 = Politico/Sportivo\n4 = Altro/Non so,People/Fiorello/selected/im_35.jpg,8,23,3,46,450.121081611467,1,1.09708805138143
Che lavoro fa?,1 = Presentatore TV/attore\n2 = Cantante/Musicista\n3 = Politico/Sportivo\n4 = Altro/Non so,People/Romano Prodi/selected/im_17.jpg,8,24,3,46,452.636749605097,3,0.844447134397342
Quanti fatti ricordi?,1 = Moltissimo\n2 = Molto\n3 = Poco\n4 = Pochissimo,People/Silvio Berlusconi/selected/Silvio Berlusconi_8.jpg,7,17,3,47,467.514255626478,2,1.22868884678974
Quanti fatti ricordi?,1 = Moltissimo\n2 = Molto\n3 = Poco\n4 = Pochissimo,People/Britney Spears/selected/im_30 (1).jpg,7,18,3,47,470.0299137823,2,1.35403194037099
Quanti fatti ricordi?,1 = Moltissimo\n2 = Molto\n3 = Poco\n4 = Pochissimo,People/Giorgio Napolitano/selected/im_43.jpg,7,19,3,47,472.545512911269,2,0.996483624967368
Quanti fatti ricordi?,1 = Moltissimo\n2 = Molto\n3 = Poco\n4 = Pochissimo,People/Matt Damon/selected/im_19.jpg,7,20,3,47,475.061207851941,3,1.24193182056479
Quanti fatti ricordi?,1 = Moltissimo\n2 = Molto\n3 = Poco\n4 = Pochissimo,People/Matteo Salvini/selected/im_59.jpg,7,21,3,47,477.576869857339,2,1.50537550702029
Quanti fatti ricordi?,1 = Moltissimo\n2 = Molto\n3 = Poco\n4 = Pochissimo,People/Michelle Hunziker/selected/im_03.jpg,7,22,3,47,480.092548116509,2,1.02984320671567
Quanti fatti ricordi?,1 = Moltissimo\n2 = Molto\n3 = Poco\n4 = Pochissimo,People/Paolo Bonolis/selected/im_22.jpg,7,23,3,47,482.608247334489,2,0.914322523576629
Quanti fatti ricordi?,1 = Moltissimo\n2 = Molto\n3 = Poco\n4 = Pochissimo,People/Angelina Jolie/selected/im_33.jpg,7,24,3,47,485.123864855883,2,0.902658731973133
Stesso monumento?,1 = Stesso monumento \n2 = Monumento diverso,Monuments/42 Tour Eiffel copy.jpg,14,17,3,48,500.01799934044,,
Stesso monumento?,1 = Stesso monumento \n2 = Monumento diverso,Monuments/12 Duomo di San Marco copy.jpg,14,18,3,48,502.533657923992,2,0.519529547431375
Stesso monumento?,1 = Stesso monumento \n2 = Monumento diverso,Monuments/43 Tower Bridge copy.jpg,14,19,3,48,505.049265179847,2,0.72201731540008
Stesso monumento?,1 = Stesso monumento \n2 = Monumento diverso,Monuments/15 Fontana di Trevi copy.jpg,14,20,3,48,507.564969530595,2,0.767425218751669
Stesso monumento?,1 = Stesso monumento \n2 = Monumento diverso,Monuments/26 Piazza San Marco  copy.jpg,14,21,3,48,510.080597317528,2,0.519881142161466
Stesso monumento?,1 = Stesso monumento \n2 = Monumento diverso,Monuments/29 Ponte dei Sospiri copy.jpg,14,22,3,48,512.596282848122,2,0.525291509244198
Stesso monumento?,1 = Stesso monumento \n2 = Monumento diverso,Monuments/29 Ponte dei Sospiri copy.jpg,14,23,3,48,515.111931593867,1,0.519864032929036
Stesso monumento?,1 = Stesso monumento \n2 = Monumento diverso,Monuments/11 Duomo di Milano copy.jpg,14,24,3,48,517.627672729466,2,0.548100682701261
Stesso monumento?,1 = Stesso monumento \n2 = Monumento diverso,Monuments/32 Ponte vecchio copy.jpg,14,25,4,49,12.5116605836229,,
Stesso monumento?,1 = Stesso monumento \n2 = Monumento diverso,Monuments/4 Arco di Costantino copy.jpg,14,26,4,49,15.0272323378194,2,0.519482497042191
Stesso monumento?,1 = Stesso monumento \n2 = Monumento diverso,Monuments/30 Ponte di Brooklyn  copy.jpg,14,27,4,49,17.5429418213389,2,0.699911759133101
Stesso monumento?,1 = Stesso monumento \n2 = Monumento diverso,Monuments/30 Ponte di Brooklyn  copy.jpg,14,28,4,49,20.0585456553454,1,0.605364428793109
Stesso monumento?,1 = Stesso monumento \n2 = Monumento diverso,Monuments/2 Altare della Patria copy.jpg,14,29,4,49,22.5743539446848,2,0.5196424683636
Stesso monumento?,1 = Stesso monumento \n2 = Monumento diverso,Monuments/2 Altare della Patria copy.jpg,14,30,4,49,25.0898953299911,1,0.520201940271363
Stesso monumento?,1 = Stesso monumento \n2 = Monumento diverso,Monuments/22 Notre Dame copy.jpg,14,31,4,49,27.605565462276,2,0.519746834685066
Stesso monumento?,1 = Stesso monumento \n2 = Monumento diverso,Monuments/40 Teatro dell Opera copy.jpg,14,32,4,49,30.1212159189454,2,0.546119005834043
Stesso volto?,1 = Stesso volto\n2 = Volto diverso,People/Daniel Radcliffe/selected/im_05.jpg,12,25,4,50,45.0154333832797,,
Stesso volto?,1 = Stesso volto\n2 = Volto diverso,People/Cameron Diaz/selected/im_14.jpg,12,26,4,50,47.5309944442051,2,0.547075839665922
Stesso volto?,1 = Stesso volto\n2 = Volto diverso,People/Johnny Depp/selected/im_09.jpg,12,27,4,50,50.0466632932985,2,0.873426324862521
Stesso volto?,1 = Stesso volto\n2 = Volto diverso,People/Roberto Maroni/selected/im_10.jpg,12,28,4,50,52.56230049031,2,0.536817143794906
Stesso volto?,1 = Stesso volto\n2 = Volto diverso,People/Paolo Bonolis/selected/im_22.jpg,12,29,4,50,55.0780450477541,2,0.862226193465176
Stesso volto?,1 = Stesso volto\n2 = Volto diverso,People/Giorgia Meloni/selected/im_17.jpg,12,30,4,50,57.5936394716846,2,0.519850773274811
Stesso volto?,1 = Stesso volto\n2 = Volto diverso,People/Donald Trump/selected/im_14.jpg,12,31,4,50,60.1093279963934,2,0.726230036201741
Stesso volto?,1 = Stesso volto\n2 = Volto diverso,People/Donald Trump/selected/im_14.jpg,12,32,4,50,62.6249900017938,1,0.773672227311181
Nome comune?,1 = Moltissimo\n2 = Molto\n3 = Poco\n4 = Pochissimo,People/Paolo Bonolis/selected/im_13.jpg,6,25,4,51,77.5191869350492,2,1.50093865527379
Nome comune?,1 = Moltissimo\n2 = Molto\n3 = Poco\n4 = Pochissimo,People/Giorgio Napolitano/selected/im_46.jpg,6,26,4,51,80.0347586892458,2,1.10659009144365
Nome comune?,1 = Moltissimo\n2 = Molto\n3 = Poco\n4 = Pochissimo,People/Justin Bieber/selected/im_06.jpg,6,27,4,51,82.5504134232215,3,1.3710744469754
Nome comune?,1 = Moltissimo\n2 = Molto\n3 = Poco\n4 = Pochissimo,People/Julia Roberts/selected/im_13.jpg,6,28,4,51,85.066113924393,3,1.27544538540678
Nome comune?,1 = Moltissimo\n2 = Molto\n3 = Poco\n4 = Pochissimo,People/Brad Pitt/selected/im_11.jpg,6,29,4,51,87.5817904726391,3,0.922742832408403
Nome comune?,1 = Moltissimo\n2 = Molto\n3 = Poco\n4 = Pochissimo,People/Hillary Clinton/selected/im_10.jpg,6,30,4,51,90.0974007226105,3,1.20834425829162
Nome comune?,1 = Moltissimo\n2 = Molto\n3 = Poco\n4 = Pochissimo,People/Michelle Obama/selected/im_11.jpg,6,31,4,51,92.6130883918559,3,0.793640840423905
Nome comune?,1 = Moltissimo\n2 = Molto\n3 = Poco\n4 = Pochissimo,People/Mike Tyson/selected/im_11.jpg,6,32,4,51,95.1287559577577,3,1.11921328326571
Quanti fatti ricordi?,1 = Moltissimo\n2 = Molto\n3 = Poco\n4 = Pochissimo,People/Roberto Maroni/selected/im_10.jpg,7,25,4,52,110.022824999498,2,1.18754670285853
Quanti fatti ricordi?,1 = Moltissimo\n2 = Molto\n3 = Poco\n4 = Pochissimo,People/Filippo Inzaghi/selected/im_33.jpg,7,26,4,52,112.538476311627,2,1.43405524314585
Quanti fatti ricordi?,1 = Moltissimo\n2 = Molto\n3 = Poco\n4 = Pochissimo,People/Jim Carrey/selected/im_105.jpg,7,27,4,52,115.0541823733,3,1.51757866718253
Quanti fatti ricordi?,1 = Moltissimo\n2 = Molto\n3 = Poco\n4 = Pochissimo,People/George Clooney/selected/im_01.jpg,7,28,4,52,117.56985635516,3,1.42300096795225
Quanti fatti ricordi?,1 = Moltissimo\n2 = Molto\n3 = Poco\n4 = Pochissimo,People/Julia Roberts/selected/im_106.jpg,7,29,4,52,120.085493124443,3,1.74529014905784
Quanti fatti ricordi?,1 = Moltissimo\n2 = Molto\n3 = Poco\n4 = Pochissimo,People/Rihanna/selected/im_10.jpg,7,30,4,52,122.601189776036,3,1.19183213789802
Quanti fatti ricordi?,1 = Moltissimo\n2 = Molto\n3 = Poco\n4 = Pochissimo,People/Michael Jackson/selected/im_33.jpg,7,31,4,52,125.11685434782,2,0.895148206589511
Quanti fatti ricordi?,1 = Moltissimo\n2 = Molto\n3 = Poco\n4 = Pochissimo,People/Laura Pausini/selected/im_15.jpg,7,32,4,52,127.632576235534,3,1.78364733765557
Stesso volto?,1 = Stesso volto\n2 = Volto diverso,People/Matteo Renzi/selected/im_14.jpg,11,25,4,53,142.526687622627,,
Stesso volto?,1 = Stesso volto\n2 = Volto diverso,People/Paolo Bonolis/selected/im_08.jpg,11,26,4,53,145.04230001125,2,0.519460255036392
Stesso volto?,1 = Stesso volto\n2 = Volto diverso,People/Paolo Bonolis/selected/im_08.jpg,11,27,4,53,147.557915393991,1,0.694048425117217
Stesso volto?,1 = Stesso volto\n2 = Volto diverso,People/Roberto Maroni/selected/im_30.jpg,11,28,4,53,150.073611617852,2,0.718425659742934
Stesso volto?,1 = Stesso volto\n2 = Volto diverso,People/Bill Clinton/selected/im_12.jpg,11,29,4,53,152.58925736948,2,0.607805916286452
Stesso volto?,1 = Stesso volto\n2 = Volto diverso,People/George Clooney/selected/im_04.jpg,11,30,4,53,155.104977974002,2,0.871131121308281
Stesso volto?,1 = Stesso volto\n2 = Volto diverso,People/Paris Hilton/selected/im_01.jpg,11,31,4,53,157.620594212203,2,0.756659661863523
Stesso volto?,1 = Stesso volto\n2 = Volto diverso,People/Paris Hilton/selected/im_01.jpg,11,32,4,53,160.136247235256,1,0.702120988793467
Quanto attraente?,1 = Moltissimo\n2 = Molto\n3 = Poco\n4 = Pochissimo,People/Johnny Depp/selected/im_17.jpg,2,25,4,54,175.013726737325,1,1.00920305622276
Quanto attraente?,1 = Moltissimo\n2 = Molto\n3 = Poco\n4 = Pochissimo,People/Angelina Jolie/selected/im_14.jpg,2,26,4,54,177.529393875495,1,0.774627777951537
Quanto attraente?,1 = Moltissimo\n2 = Molto\n3 = Poco\n4 = Pochissimo,People/Giorgia Meloni/selected/im_17.jpg,2,27,4,54,180.045009258232,4,1.10018097290595
Quanto attraente?,1 = Moltissimo\n2 = Molto\n3 = Poco\n4 = Pochissimo,People/Filippo Inzaghi/selected/im_01.jpg,2,28,4,54,182.560672119096,2,1.4095826245466
Quanto attraente?,1 = Moltissimo\n2 = Molto\n3 = Poco\n4 = Pochissimo,People/Barack Obama/selected/im_03.jpg,2,29,4,54,185.076332841301,2,1.83514783874125
Quanto attraente?,1 = Moltissimo\n2 = Molto\n3 = Poco\n4 = Pochissimo,People/Roberto Maroni/selected/im_16.jpg,2,30,4,54,187.592000834931,4,1.01854426950013
Quanto attraente?,1 = Moltissimo\n2 = Molto\n3 = Poco\n4 = Pochissimo,People/Bill Clinton/selected/im_16.jpg,2,31,4,54,190.107667973101,4,0.66290833857056
Quanto attraente?,1 = Moltissimo\n2 = Molto\n3 = Poco\n4 = Pochissimo,People/Justin Bieber/selected/im_05.jpg,2,32,4,54,192.623410391891,3,1.46732585688369
Memoria remota?,1 = Moltissimo\n2 = Molto\n3 = Poco\n4 = Pochissimo,People/Giorgia Meloni/selected/im_67.jpg,1,25,4,55,207.51749910925,2,1.31672440319744
Memoria remota?,1 = Moltissimo\n2 = Molto\n3 = Poco\n4 = Pochissimo,People/Paris Hilton/selected/im_48.jpg,1,26,4,55,210.03310893149,3,1.46031663201211
Memoria remota?,1 = Moltissimo\n2 = Molto\n3 = Poco\n4 = Pochissimo,People/Rihanna/selected/im_13.jpg,1,27,4,55,212.548779919238,3,1.8635987816524
Memoria remota?,1 = Moltissimo\n2 = Molto\n3 = Poco\n4 = Pochissimo,People/George Clooney/selected/im_04.jpg,1,28,4,55,215.064455184289,2,0.970148666398018
Memoria remota?,1 = Moltissimo\n2 = Molto\n3 = Poco\n4 = Pochissimo,People/Hillary Clinton/selected/im_09.jpg,1,29,4,55,217.580154830001,2,1.23544100544314
Memoria remota?,1 = Moltissimo\n2 = Molto\n3 = Poco\n4 = Pochissimo,People/Fiorello/selected/im_29.jpg,1,30,4,55,220.095760374934,1,1.45904669922311
Memoria remota?,1 = Moltissimo\n2 = Molto\n3 = Poco\n4 = Pochissimo,People/Michael Jackson/selected/im_50.jpg,1,31,4,55,222.611449327371,1,1.12546756324809
Memoria remota?,1 = Moltissimo\n2 = Molto\n3 = Poco\n4 = Pochissimo,People/Robin Williams/selected/im_13.jpg,1,32,4,55,225.127123309234,1,0.811849341233028
Quanto amichevole?,1 = Moltissimo\n2 = Molto\n3 = Poco\n4 = Pochissimo,People/Michelle Hunziker/selected/im_47.jpg,3,25,4,56,240.02124667279,1,2.36142441205084
Quanto amichevole?,1 = Moltissimo\n2 = Molto\n3 = Poco\n4 = Pochissimo,People/Filippo Inzaghi/selected/im_57.jpg,3,26,4,56,242.536832542104,2,1.04482661717702
Quanto amichevole?,1 = Moltissimo\n2 = Molto\n3 = Poco\n4 = Pochissimo,People/Paris Hilton/selected/im_15.jpg,3,27,4,56,245.052507807159,2,1.26930573728168
Quanto amichevole?,1 = Moltissimo\n2 = Molto\n3 = Poco\n4 = Pochissimo,People/Johnny Depp/selected/im_12.jpg,3,28,4,56,247.568176228517,2,1.4807151145942
Quanto amichevole?,1 = Moltissimo\n2 = Molto\n3 = Poco\n4 = Pochissimo,People/Angelino Alfano/selected/im_12.jpg,3,29,4,56,250.08390752631,2,1.16508869640165
Quanto amichevole?,1 = Moltissimo\n2 = Molto\n3 = Poco\n4 = Pochissimo,People/Arnold Schwarzenegger/selected/im_11.jpg,3,30,4,56,252.599550711551,2,0.750555087666726
Quanto amichevole?,1 = Moltissimo\n2 = Molto\n3 = Poco\n4 = Pochissimo,People/Fiorello/selected/im_69.jpg,3,31,4,56,255.115283720268,2,0.69471269107089
Quanto amichevole?,1 = Moltissimo\n2 = Molto\n3 = Poco\n4 = Pochissimo,People/Jim Carrey/selected/im_08.jpg,3,32,4,56,257.630929471896,2,0.860325357720285
Che lavoro fa?,1 = Presentatore TV/attore\n2 = Cantante/Musicista\n3 = Politico/Sportivo\n4 = Altro/Non so,People/Silvio Berlusconi/selected/Silvio Berlusconi_2.jpg,8,25,4,57,272.525060962336,3,1.10774795876205
Che lavoro fa?,1 = Presentatore TV/attore\n2 = Cantante/Musicista\n3 = Politico/Sportivo\n4 = Altro/Non so,People/Daniel Radcliffe/selected/im_11.jpg,8,26,4,57,275.040619029147,1,1.1923569636092
Che lavoro fa?,1 = Presentatore TV/attore\n2 = Cantante/Musicista\n3 = Politico/Sportivo\n4 = Altro/Non so,People/Bill Clinton/selected/im_18.jpg,8,27,4,57,277.556285311854,3,0.934594825568638
Che lavoro fa?,1 = Presentatore TV/attore\n2 = Cantante/Musicista\n3 = Politico/Sportivo\n4 = Altro/Non so,People/Johnny Depp/selected/im_50.jpg,8,28,4,57,280.071968703793,1,0.86113077484697
Che lavoro fa?,1 = Presentatore TV/attore\n2 = Cantante/Musicista\n3 = Politico/Sportivo\n4 = Altro/Non so,People/Mike Tyson/selected/im_10.jpg,8,29,4,57,282.587615738612,3,1.04561022002963
Che lavoro fa?,1 = Presentatore TV/attore\n2 = Cantante/Musicista\n3 = Politico/Sportivo\n4 = Altro/Non so,People/Barack Obama/selected/im_24.jpg,8,30,4,57,285.103285443165,3,0.931048937109153
Che lavoro fa?,1 = Presentatore TV/attore\n2 = Cantante/Musicista\n3 = Politico/Sportivo\n4 = Altro/Non so,People/Cameron Diaz/selected/im_29.jpg,8,31,4,57,287.618959425028,1,1.17632604037863
Che lavoro fa?,1 = Presentatore TV/attore\n2 = Cantante/Musicista\n3 = Politico/Sportivo\n4 = Altro/Non so,People/Justin Bieber/selected/im_08.jpg,8,32,4,57,290.134619291774,1,1.28395551770518
Stesso monumento?,1 = Stesso monumento \n2 = Monumento diverso,Monuments/45 White House copy.jpg,16,25,4,58,305.012106065267,,
Stesso monumento?,1 = Stesso monumento \n2 = Monumento diverso,Monuments/39 Taj Mahal copy.jpg,16,26,4,58,307.527693217773,2,0.781492002075538
Stesso monumento?,1 = Stesso monumento \n2 = Monumento diverso,Monuments/24 Pantheon copy.jpg,16,27,4,58,310.043379176095,2,0.886935347203689
Stesso monumento?,1 = Stesso monumento \n2 = Monumento diverso,Monuments/10 Colosseo copy.jpg,16,28,4,58,312.559036476458,2,0.710246591093892
Stesso monumento?,1 = Stesso monumento \n2 = Monumento diverso,Monuments/12 Duomo di San Marco copy.jpg,16,29,4,58,315.074727139821,2,0.519654017098219
Stesso monumento?,1 = Stesso monumento \n2 = Monumento diverso,Monuments/12 Duomo di San Marco copy.jpg,16,30,4,58,317.590384012448,1,0.679134734778927
Stesso monumento?,1 = Stesso monumento \n2 = Monumento diverso,Monuments/4 Arco di Costantino copy.jpg,16,31,4,58,320.106050295155,2,0.526513536180573
Stesso monumento?,1 = Stesso monumento \n2 = Monumento diverso,Monuments/14 Empire State Building copy.jpg,16,32,4,58,322.621709306441,2,0.591952501348715
Sicuramente conoscere\n(nome e cognome)?,1 = Moltissimo\n2 = Molto\n3 = Poco\n4 = Pochissimo,People/Angelino Alfano/selected/im_73.jpg,10,25,4,59,337.515849351497,2,0.939394393048133
Sicuramente conoscere\n(nome e cognome)?,1 = Moltissimo\n2 = Molto\n3 = Poco\n4 = Pochissimo,People/Matt Damon/selected/im_21.jpg,10,26,4,59,340.031563112323,2,1.083919930501
Sicuramente conoscere\n(nome e cognome)?,1 = Moltissimo\n2 = Molto\n3 = Poco\n4 = Pochissimo,People/Matteo Renzi/selected/im_16.jpg,10,27,4,59,342.547143421136,1,1.24838200125669
Sicuramente conoscere\n(nome e cognome)?,1 = Moltissimo\n2 = Molto\n3 = Poco\n4 = Pochissimo,People/Michelle Obama/selected/im_08.jpg,10,28,4,59,345.062799010575,3,1.09375902244574
Sicuramente conoscere\n(nome e cognome)?,1 = Moltissimo\n2 = Molto\n3 = Poco\n4 = Pochissimo,People/Robin Williams/selected/im_04.jpg,10,29,4,59,347.578477269744,2,1.35819376120344
Sicuramente conoscere\n(nome e cognome)?,1 = Moltissimo\n2 = Molto\n3 = Poco\n4 = Pochissimo,People/Rihanna/selected/im_02 (1).jpg,10,30,4,59,350.094133714643,2,0.864695055730408
Sicuramente conoscere\n(nome e cognome)?,1 = Moltissimo\n2 = Molto\n3 = Poco\n4 = Pochissimo,People/Johnny Depp/selected/im_17.jpg,10,31,4,59,352.609772622578,1,1.20915438045631
Sicuramente conoscere\n(nome e cognome)?,1 = Moltissimo\n2 = Molto\n3 = Poco\n4 = Pochissimo,People/Michelle Hunziker/selected/im_12.jpg,10,32,4,59,355.125451309475,1,0.835490878853307
Quanto familiare?,1 = Moltissimo\n2 = Molto\n3 = Poco\n4 = Pochissimo,People/Daniel Radcliffe/selected/im_12.jpg,5,25,4,60,370.01967305112,2,1.28396749416788
Quanto familiare?,1 = Moltissimo\n2 = Molto\n3 = Poco\n4 = Pochissimo,People/Matteo Renzi/selected/im_49.jpg,5,26,4,60,372.535222991046,2,1.07148151839283
Quanto familiare?,1 = Moltissimo\n2 = Molto\n3 = Poco\n4 = Pochissimo,People/Michelle Hunziker/selected/im_27.jpg,5,27,4,60,375.050883285519,2,0.574820171270403
Quanto familiare?,1 = Moltissimo\n2 = Molto\n3 = Poco\n4 = Pochissimo,People/Giorgio Napolitano/selected/im_38.jpg,5,28,4,60,377.566532458994,2,0.919340233769617
Quanto familiare?,1 = Moltissimo\n2 = Molto\n3 = Poco\n4 = Pochissimo,People/Hillary Clinton/selected/im_31.jpg,5,29,4,60,380.082226544204,3,0.885683379106922
Quanto familiare?,1 = Moltissimo\n2 = Molto\n3 = Poco\n4 = Pochissimo,People/Silvio Berlusconi/selected/im_01.jpg,5,30,4,60,382.597887694141,2,0.950123592818272
Quanto familiare?,1 = Moltissimo\n2 = Molto\n3 = Poco\n4 = Pochissimo,People/Jim Carrey/selected/im_69.jpg,5,31,4,60,385.113559965081,2,0.894649900190416
Quanto familiare?,1 = Moltissimo\n2 = Molto\n3 = Poco\n4 = Pochissimo,People/George Bush/selected/im_85.jpg,5,32,4,60,387.629230952825,2,1.15897727850825
Quanto affidabile?,1 = Moltissimo\n2 = Molto\n3 = Poco\n4 = Pochissimo,People/Johnny Depp/selected/im_50.jpg,4,25,4,61,402.523369286959,1,1.6075668147605
Quanto affidabile?,1 = Moltissimo\n2 = Molto\n3 = Poco\n4 = Pochissimo,People/Filippo Inzaghi/selected/im_09.jpg,4,26,4,61,405.038991513393,2,1.0320310498355
Quanto affidabile?,1 = Moltissimo\n2 = Molto\n3 = Poco\n4 = Pochissimo,People/Michelle Obama/selected/im_32.jpg,4,27,4,61,407.554662928869,2,0.91832266216079
Quanto affidabile?,1 = Moltissimo\n2 = Molto\n3 = Poco\n4 = Pochissimo,People/Silvio Berlusconi/selected/im_08.jpg,4,28,4,61,410.070300981344,4,1.02477930159148
Quanto affidabile?,1 = Moltissimo\n2 = Molto\n3 = Poco\n4 = Pochissimo,People/Roberto Maroni/selected/im_36.jpg,4,29,4,61,412.585974963204,4,0.690231355321885
Quanto affidabile?,1 = Moltissimo\n2 = Molto\n3 = Poco\n4 = Pochissimo,People/Laura Pausini/selected/im_03.jpg,4,30,4,61,415.101642956834,2,1.11462971984656
Quanto affidabile?,1 = Moltissimo\n2 = Molto\n3 = Poco\n4 = Pochissimo,People/Sandra Bullock/selected/im_12.jpg,4,31,4,61,417.617388369745,2,0.800971291133465
Quanto affidabile?,1 = Moltissimo\n2 = Molto\n3 = Poco\n4 = Pochissimo,People/George Bush/selected/im_24.jpg,4,32,4,61,420.132967823094,3,1.4676462272655
Stesso volto?,1 = Stesso volto\n2 = Volto diverso,People/Daniel Radcliffe/selected/im_07.jpg,13,25,4,62,435.010452030205,,
Stesso volto?,1 = Stesso volto\n2 = Volto diverso,People/Angelino Alfano/selected/im_12.jpg,13,26,4,62,437.52608580537,2,0.612067826132261
Stesso volto?,1 = Stesso volto\n2 = Volto diverso,People/Michael Jackson/selected/im_33.jpg,13,27,4,62,440.041728135151,2,0.636507937186252
Stesso volto?,1 = Stesso volto\n2 = Volto diverso,People/Michael Jackson/selected/im_33.jpg,13,28,4,62,442.557402544742,1,0.600927577048424
Stesso volto?,1 = Stesso volto\n2 = Volto diverso,People/Michael Jackson/selected/im_33.jpg,13,29,4,62,445.07308465349,1,0.526337311086536
Stesso volto?,1 = Stesso volto\n2 = Volto diverso,People/Giorgio Napolitano/selected/im_41.jpg,13,30,4,62,447.588786437853,2,0.519728014529392
Stesso volto?,1 = Stesso volto\n2 = Volto diverso,People/Giorgio Napolitano/selected/im_41.jpg,13,31,4,62,450.104392410514,1,0.520225893196766
Stesso volto?,1 = Stesso volto\n2 = Volto diverso,People/George Clooney/selected/im_08 (1).jpg,13,32,4,62,452.62007751338,2,0.64864052176199
Stesso monumento?,1 = Stesso monumento \n2 = Monumento diverso,Monuments/27 Piazza San Pietro copy.jpg,15,25,4,63,467.51422525759,,
Stesso monumento?,1 = Stesso monumento \n2 = Monumento diverso,Monuments/27 Piazza San Pietro copy.jpg,15,26,4,63,470.029833796638,1,0.911585474092135
Stesso monumento?,1 = Stesso monumento \n2 = Monumento diverso,Monuments/16 Golden Gate copy.jpg,15,27,4,63,472.545494946575,2,0.520104417646507
Stesso monumento?,1 = Stesso monumento \n2 = Monumento diverso,Monuments/16 Golden Gate copy.jpg,15,28,4,63,475.061214695634,1,0.793385057397245
Stesso monumento?,1 = Stesso monumento \n2 = Monumento diverso,Monuments/25 Piazza di Spagna copy.jpg,15,29,4,63,477.576820240563,2,0.899959750528069
Stesso monumento?,1 = Stesso monumento \n2 = Monumento diverso,Monuments/30 Ponte di Brooklyn  copy.jpg,15,30,4,63,480.09251261485,2,0.723346275040967
Stesso monumento?,1 = Stesso monumento \n2 = Monumento diverso,Monuments/2 Altare della Patria copy.jpg,15,31,4,63,482.60816820429,2,0.568821246586594
Stesso monumento?,1 = Stesso monumento \n2 = Monumento diverso,Monuments/32 Ponte vecchio copy.jpg,15,32,4,63,485.123849457574,2,0.655236986396631
Volto distintivo?,1 = Moltissimo\n2 = Molto\n3 = Poco\n4 = Pochissimo,People/Paris Hilton/selected/im_18.jpg,9,25,4,64,500.017908661506,2,0.983652128241374
Volto distintivo?,1 = Moltissimo\n2 = Molto\n3 = Poco\n4 = Pochissimo,People/Sabrina Ferilli/selected/im_05.jpg,9,26,4,64,502.533581360174,2,0.769093368933682
Volto distintivo?,1 = Moltissimo\n2 = Molto\n3 = Poco\n4 = Pochissimo,People/George Clooney/selected/im_15.jpg,9,27,4,64,505.049248498344,2,0.734513471168611
Volto distintivo?,1 = Moltissimo\n2 = Molto\n3 = Poco\n4 = Pochissimo,People/Daniel Radcliffe/selected/im_02.jpg,9,28,4,64,507.564919058361,2,1.44196227499924
Volto distintivo?,1 = Moltissimo\n2 = Molto\n3 = Poco\n4 = Pochissimo,People/Donald Trump/selected/im_16.jpg,9,29,4,64,510.080562671334,2,0.746389417257888
Volto distintivo?,1 = Moltissimo\n2 = Molto\n3 = Poco\n4 = Pochissimo,People/Robin Williams/selected/im_26.jpg,9,30,4,64,512.596231520427,2,0.992930037355109
Volto distintivo?,1 = Moltissimo\n2 = Molto\n3 = Poco\n4 = Pochissimo,People/Hillary Clinton/selected/im_18.jpg,9,31,4,64,515.111904219095,3,1.31639333954809
Volto distintivo?,1 = Moltissimo\n2 = Molto\n3 = Poco\n4 = Pochissimo,People/Michael Jackson/selected/im_28.jpg,9,32,4,64,517.627691121892,2,1.26458401681157
Quanto familiare?,1 = Moltissimo\n2 = Molto\n3 = Poco\n4 = Pochissimo,People/Robin Williams/selected/im_85.jpg,5,33,5,65,12.5116524567347,2,1.02197381517544
Quanto familiare?,1 = Moltissimo\n2 = Molto\n3 = Poco\n4 = Pochissimo,People/Angelina Jolie/selected/im_29.jpg,5,34,5,65,15.027393592336,2,1.22647790620613
Quanto familiare?,1 = Moltissimo\n2 = Molto\n3 = Poco\n4 = Pochissimo,People/Britney Spears/selected/im_24.jpg,5,35,5,65,17.5429324112592,2,0.752883226494305
Quanto familiare?,1 = Moltissimo\n2 = Molto\n3 = Poco\n4 = Pochissimo,People/Filippo Inzaghi/selected/im_10.jpg,5,36,5,65,20.0585790183468,2,0.817379045209236
Quanto familiare?,1 = Moltissimo\n2 = Molto\n3 = Poco\n4 = Pochissimo,People/Matteo Salvini/selected/im_49.jpg,5,37,5,65,22.5742427346704,2,0.944850955060247
Quanto familiare?,1 = Moltissimo\n2 = Molto\n3 = Poco\n4 = Pochissimo,People/Roberto Maroni/selected/im_14.jpg,5,38,5,65,25.0899192829165,2,0.808188820916257
Quanto familiare?,1 = Moltissimo\n2 = Molto\n3 = Poco\n4 = Pochissimo,People/Romano Prodi/selected/im_05.jpg,5,39,5,65,27.6056950647144,2,0.713642346032429
Quanto familiare?,1 = Moltissimo\n2 = Molto\n3 = Poco\n4 = Pochissimo,People/Michelle Obama/selected/im_10.jpg,5,40,5,65,30.1213125861068,2,1.2771267952412
Quanto attraente?,1 = Moltissimo\n2 = Molto\n3 = Poco\n4 = Pochissimo,People/Romano Prodi/selected/im_30.jpg,2,33,5,66,45.0153581026534,4,1.36555629172653
Quanto attraente?,1 = Moltissimo\n2 = Molto\n3 = Poco\n4 = Pochissimo,People/Britney Spears/selected/im_72.jpg,2,34,5,66,47.5310308013213,2,0.890991518528608
Quanto attraente?,1 = Moltissimo\n2 = Molto\n3 = Poco\n4 = Pochissimo,People/Hillary Clinton/selected/im_14.jpg,2,35,5,66,50.0466936621815,3,0.919485662248917
Quanto attraente?,1 = Moltissimo\n2 = Molto\n3 = Poco\n4 = Pochissimo,People/Michael Jackson/selected/im_15.jpg,2,36,5,66,52.5623501070804,3,1.46391513136041
Quanto attraente?,1 = Moltissimo\n2 = Molto\n3 = Poco\n4 = Pochissimo,People/Sandra Bullock/selected/im_05.jpg,2,37,5,66,55.0780702838711,2,0.90824489642182
Quanto attraente?,1 = Moltissimo\n2 = Molto\n3 = Poco\n4 = Pochissimo,People/Mike Tyson/selected/im_41.jpg,2,38,5,66,57.5937109027291,3,1.31477010110393
Quanto attraente?,1 = Moltissimo\n2 = Molto\n3 = Poco\n4 = Pochissimo,People/Rihanna/selected/im_07.jpg,2,39,5,66,60.1093921560132,1,1.14121190682636
Quanto attraente?,1 = Moltissimo\n2 = Molto\n3 = Poco\n4 = Pochissimo,People/Brad Pitt/selected/im_04.jpg,2,40,5,66,62.6250293530247,1,0.787540115801676
Stesso monumento?,1 = Stesso monumento \n2 = Monumento diverso,Monuments/32 Ponte vecchio copy.jpg,15,33,5,67,77.5191723921998,,
Stesso monumento?,1 = Stesso monumento \n2 = Monumento diverso,Monuments/38 Stonehenge copy.jpg,15,34,5,67,80.034788202669,2,0.519446139922366
Stesso monumento?,1 = Stesso monumento \n2 = Monumento diverso,Monuments/22 Notre Dame copy.jpg,15,35,5,67,82.5504450752996,2,0.588346302844002
Stesso monumento?,1 = Stesso monumento \n2 = Monumento diverso,Monuments/26 Piazza San Marco  copy.jpg,15,36,5,67,85.0661216235458,2,0.650254350130126
Stesso monumento?,1 = Stesso monumento \n2 = Monumento diverso,Monuments/13 Duomo di Trento copy.jpg,15,37,5,67,87.581840944873,2,0.519689091026521
Stesso monumento?,1 = Stesso monumento \n2 = Monumento diverso,Monuments/31 Ponte di Rialto copy.jpg,15,38,5,67,90.0974212536858,2,0.666223252384953
Stesso monumento?,1 = Stesso monumento \n2 = Monumento diverso,Monuments/21 Muraglia Cinese copy.jpg,15,39,5,67,92.6131632447468,2,0.519550933971914
Stesso monumento?,1 = Stesso monumento \n2 = Monumento diverso,Monuments/21 Muraglia Cinese copy.jpg,15,40,5,67,95.1288500585324,1,0.576984916926449
Stesso volto?,1 = Stesso volto\n2 = Volto diverso,People/Paris Hilton/selected/im_01.jpg,11,33,5,68,110.022866917116,,
Stesso volto?,1 = Stesso volto\n2 = Volto diverso,People/Cameron Diaz/selected/im_29.jpg,11,34,5,68,112.53851523513,2,0.741996194050444
Stesso volto?,1 = Stesso volto\n2 = Volto diverso,People/Michelle Hunziker/selected/im_29.jpg,11,35,5,68,115.054192638836,2,1.02551328767368
Stesso volto?,1 = Stesso volto\n2 = Volto diverso,People/Michelle Hunziker/selected/im_29.jpg,11,36,5,68,117.569882874472,1,0.769819228124106
Stesso volto?,1 = Stesso volto\n2 = Volto diverso,People/Michelle Hunziker/selected/im_29.jpg,11,37,5,68,120.085552151293,1,0.536235429884982
Stesso volto?,1 = Stesso volto\n2 = Volto diverso,People/Matteo Salvini/selected/im_59.jpg,11,38,5,68,122.601579011076,2,0.519306271944515
Stesso volto?,1 = Stesso volto\n2 = Volto diverso,People/Matteo Salvini/selected/im_59.jpg,11,39,5,68,125.116858197394,1,0.549122959349916
Stesso volto?,1 = Stesso volto\n2 = Volto diverso,People/Romano Prodi/selected/im_07.jpg,11,40,5,68,127.632533034721,2,1.03564922480291
Stesso monumento?,1 = Stesso monumento \n2 = Monumento diverso,Monuments/14 Empire State Building copy.jpg,16,33,5,69,142.526651693235,,
Stesso monumento?,1 = Stesso monumento \n2 = Monumento diverso,Monuments/40 Teatro dell Opera copy.jpg,16,34,5,69,145.042306427211,2,0.737549504494382
Stesso monumento?,1 = Stesso monumento \n2 = Monumento diverso,Monuments/34 San Pietro copy.jpg,16,35,5,69,147.557947901529,2,0.780925258743082
Stesso monumento?,1 = Stesso monumento \n2 = Monumento diverso,Monuments/34 San Pietro copy.jpg,16,36,5,69,150.073683048897,1,0.806332041440328
Stesso monumento?,1 = Stesso monumento \n2 = Monumento diverso,Monuments/34 San Pietro copy.jpg,16,37,5,69,152.589300142561,1,0.589764658230706
Stesso monumento?,1 = Stesso monumento \n2 = Monumento diverso,Monuments/34 San Pietro copy.jpg,16,38,5,69,155.104977546271,1,0.520183547847409
Stesso monumento?,1 = Stesso monumento \n2 = Monumento diverso,Monuments/26 Piazza San Marco  copy.jpg,16,39,5,69,157.620716543217,2,0.51952655331479
Stesso monumento?,1 = Stesso monumento \n2 = Monumento diverso,Monuments/28 Piramidi di Ghiza copy.jpg,16,40,5,69,160.136329787303,2,1.01304065709701
Memoria remota?,1 = Moltissimo\n2 = Molto\n3 = Poco\n4 = Pochissimo,People/Arnold Schwarzenegger/selected/im_43.jpg,1,33,5,70,175.013751117982,,
Memoria remota?,1 = Moltissimo\n2 = Molto\n3 = Poco\n4 = Pochissimo,People/George Bush/selected/im_05.jpg,1,34,5,70,177.5293814713,,
Memoria remota?,1 = Moltissimo\n2 = Molto\n3 = Poco\n4 = Pochissimo,People/Michelle Obama/selected/im_42.jpg,1,35,5,70,180.045060158198,2,0.806068131529173
Memoria remota?,1 = Moltissimo\n2 = Molto\n3 = Poco\n4 = Pochissimo,People/Tom Cruise/selected/im_06.jpg,1,36,5,70,182.560707620753,2,0.629511544240813
Memoria remota?,1 = Moltissimo\n2 = Molto\n3 = Poco\n4 = Pochissimo,People/Michelle Hunziker/selected/im_05.jpg,1,37,5,70,185.076402133691,2,0.633923159872211
Memoria remota?,1 = Moltissimo\n2 = Molto\n3 = Poco\n4 = Pochissimo,People/Paolo Bonolis/selected/im_08.jpg,1,38,5,70,187.592063283628,2,0.540351483519771
Memoria remota?,1 = Moltissimo\n2 = Molto\n3 = Poco\n4 = Pochissimo,People/Matteo Renzi/selected/im_19.jpg,1,39,5,70,190.107721011718,2,1.22582048394179
Memoria remota?,1 = Moltissimo\n2 = Molto\n3 = Poco\n4 = Pochissimo,People/Julia Roberts/selected/im_100.jpg,1,40,5,70,192.623361630576,1,0.690257446898613
Sicuramente conoscere\n(nome e cognome)?,1 = Moltissimo\n2 = Molto\n3 = Poco\n4 = Pochissimo,People/Romano Prodi/selected/im_30.jpg,10,33,5,71,207.517509374789,1,1.1766917502282
Sicuramente conoscere\n(nome e cognome)?,1 = Moltissimo\n2 = Molto\n3 = Poco\n4 = Pochissimo,People/Tom Cruise/selected/im_10.jpg,10,34,5,71,210.033135450798,1,0.941174180970847
Sicuramente conoscere\n(nome e cognome)?,1 = Moltissimo\n2 = Molto\n3 = Poco\n4 = Pochissimo,People/Bill Gates/selected/im_23.jpg,10,35,5,71,212.548815848622,3,1.08753725000497
Sicuramente conoscere\n(nome e cognome)?,1 = Moltissimo\n2 = Molto\n3 = Poco\n4 = Pochissimo,People/Matteo Salvini/selected/im_09.jpg,10,36,5,71,215.064579653957,1,1.07187331981913
Sicuramente conoscere\n(nome e cognome)?,1 = Moltissimo\n2 = Molto\n3 = Poco\n4 = Pochissimo,People/Daniel Radcliffe/selected/im_18.jpg,10,37,5,71,217.580241231622,3,1.48048841726268
Sicuramente conoscere\n(nome e cognome)?,1 = Moltissimo\n2 = Molto\n3 = Poco\n4 = Pochissimo,People/Bill Clinton/selected/im_12.jpg,10,38,5,71,220.095802292552,3,1.20798496440693
Sicuramente conoscere\n(nome e cognome)?,1 = Moltissimo\n2 = Molto\n3 = Poco\n4 = Pochissimo,People/Cameron Diaz/selected/im_114.jpg,10,39,5,71,222.611457881987,2,1.67249635252665
Sicuramente conoscere\n(nome e cognome)?,1 = Moltissimo\n2 = Molto\n3 = Poco\n4 = Pochissimo,People/Giorgio Napolitano/selected/a_im_37.jpg,10,40,5,71,225.127149828542,2,0.896741503875091
Nome comune?,1 = Moltissimo\n2 = Molto\n3 = Poco\n4 = Pochissimo,People/Laura Pausini/selected/im_05.jpg,6,33,5,72,240.021283457638,1,1.60321165959976
Nome comune?,1 = Moltissimo\n2 = Molto\n3 = Poco\n4 = Pochissimo,People/Rihanna/selected/im_04.jpg,6,34,5,72,242.536869754684,3,1.34788031578501
Nome comune?,1 = Moltissimo\n2 = Molto\n3 = Poco\n4 = Pochissimo,People/Matteo Salvini/selected/im_09.jpg,6,35,5,72,245.052551863431,1,0.932203382581065
Nome comune?,1 = Moltissimo\n2 = Molto\n3 = Poco\n4 = Pochissimo,People/Romano Prodi/selected/im_07.jpg,6,36,5,72,247.568318235146,2,1.29954117315356
Nome comune?,1 = Moltissimo\n2 = Molto\n3 = Poco\n4 = Pochissimo,People/Roberto Maroni/selected/im_30.jpg,6,37,5,72,250.083892983461,2,1.38798692341516
Nome comune?,1 = Moltissimo\n2 = Molto\n3 = Poco\n4 = Pochissimo,People/Jim Carrey/selected/im_37.jpg,6,38,5,72,252.599586640939,3,1.39139636574328
Nome comune?,1 = Moltissimo\n2 = Molto\n3 = Poco\n4 = Pochissimo,People/Sandra Bullock/selected/im_09.jpg,6,39,5,72,255.11524436903,3,0.997936198818934
Nome comune?,1 = Moltissimo\n2 = Molto\n3 = Poco\n4 = Pochissimo,People/Sabrina Ferilli/selected/im_08.jpg,6,40,5,72,257.630920917276,2,1.06330843797696
Stesso monumento?,1 = Stesso monumento \n2 = Monumento diverso,Monuments/45 White House copy.jpg,14,33,5,73,272.525047702678,,
Stesso monumento?,1 = Stesso monumento \n2 = Monumento diverso,Monuments/41 Torre di Pisa copy.jpg,14,34,5,73,275.040695592961,2,0.763211642490205
Stesso monumento?,1 = Stesso monumento \n2 = Monumento diverso,Monuments/41 Torre di Pisa copy.jpg,14,35,5,73,277.55635717063,1,0.668560801292188
Stesso monumento?,1 = Stesso monumento \n2 = Monumento diverso,Monuments/3 Ara Pacis copy.jpg,14,36,5,73,280.07197939706,2,0.693037269466004
Stesso monumento?,1 = Stesso monumento \n2 = Monumento diverso,Monuments/18 Louvre copy.jpg,14,37,5,73,282.587630709189,1,0.676487508764694
Stesso monumento?,1 = Stesso monumento \n2 = Monumento diverso,Monuments/1 Acropoli copy.jpg,14,38,5,73,285.103345325479,2,0.943882144762028
Stesso monumento?,1 = Stesso monumento \n2 = Monumento diverso,Monuments/34 San Pietro copy.jpg,14,39,5,73,287.619021018265,2,0.811293291171751
Stesso monumento?,1 = Stesso monumento \n2 = Monumento diverso,Monuments/35 Santa Maria del Fiore copy.jpg,14,40,5,73,290.134647522005,2,0.575753052180517
Quanto amichevole?,1 = Moltissimo\n2 = Molto\n3 = Poco\n4 = Pochissimo,People/Barack Obama/selected/im_16.jpg,3,33,5,74,305.028767891443,1,1.04334324670708
Quanto amichevole?,1 = Moltissimo\n2 = Molto\n3 = Poco\n4 = Pochissimo,People/George Clooney/selected/im_16.jpg,3,34,5,74,307.544422197687,2,0.746750422062178
Quanto amichevole?,1 = Moltissimo\n2 = Molto\n3 = Poco\n4 = Pochissimo,People/Bill Gates/selected/im_09.jpg,3,35,5,74,310.060177020674,3,0.833013461971859
Quanto amichevole?,1 = Moltissimo\n2 = Molto\n3 = Poco\n4 = Pochissimo,People/Michelle Obama/selected/im_06.jpg,3,36,5,74,312.575720972367,2,1.13957711965486
Quanto amichevole?,1 = Moltissimo\n2 = Molto\n3 = Poco\n4 = Pochissimo,People/Tom Cruise/selected/im_05.jpg,3,37,5,74,315.091418907155,2,0.743958195300365
Quanto amichevole?,1 = Moltissimo\n2 = Molto\n3 = Poco\n4 = Pochissimo,People/Matt Damon/selected/im_10.jpg,3,38,5,74,317.607097166325,2,1.04846960052964
Quanto amichevole?,1 = Moltissimo\n2 = Molto\n3 = Poco\n4 = Pochissimo,People/Justin Bieber/selected/im_08.jpg,3,39,5,74,320.122748906186,2,1.13285105258183
Quanto amichevole?,1 = Moltissimo\n2 = Molto\n3 = Poco\n4 = Pochissimo,People/Bill Clinton/selected/im_18.jpg,3,40,5,74,322.638392519159,3,0.777283558585623
Volto distintivo?,1 = Moltissimo\n2 = Molto\n3 = Poco\n4 = Pochissimo,People/Romano Prodi/selected/im_13.jpg,9,33,5,75,337.515955428738,1,1.38140157977978
Volto distintivo?,1 = Moltissimo\n2 = Molto\n3 = Poco\n4 = Pochissimo,People/Filippo Inzaghi/selected/im_15.jpg,9,34,5,75,340.031544719899,2,1.08481559882784
Volto distintivo?,1 = Moltissimo\n2 = Molto\n3 = Poco\n4 = Pochissimo,People/Johnny Depp/selected/im_12.jpg,9,35,5,75,342.547183627834,2,1.30940806760191
Volto distintivo?,1 = Moltissimo\n2 = Molto\n3 = Poco\n4 = Pochissimo,People/Bill Gates/selected/im_15.jpg,9,36,5,75,345.06288199035,3,1.4136815689526
Volto distintivo?,1 = Moltissimo\n2 = Molto\n3 = Poco\n4 = Pochissimo,People/Fiorello/selected/im_59.jpg,9,37,5,75,347.578525603323,2,1.70015898754355
Volto distintivo?,1 = Moltissimo\n2 = Molto\n3 = Poco\n4 = Pochissimo,People/George Bush/selected/im_28.jpg,9,38,5,75,350.094238080957,2,1.30768345695469
Volto distintivo?,1 = Moltissimo\n2 = Molto\n3 = Poco\n4 = Pochissimo,People/Michelle Obama/selected/im_35.jpg,9,39,5,75,352.609965956904,2,0.950951251947117
Volto distintivo?,1 = Moltissimo\n2 = Molto\n3 = Poco\n4 = Pochissimo,People/Matt Damon/selected/im_09.jpg,9,40,5,75,355.125488949787,2,1.39748211978076
Che lavoro fa?,1 = Presentatore TV/attore\n2 = Cantante/Musicista\n3 = Politico/Sportivo\n4 = Altro/Non so,People/George Clooney/selected/im_15.jpg,8,33,5,76,370.01970085362,1,0.833974573113665
Che lavoro fa?,1 = Presentatore TV/attore\n2 = Cantante/Musicista\n3 = Politico/Sportivo\n4 = Altro/Non so,People/Filippo Inzaghi/selected/im_16.jpg,8,34,5,76,372.535244377585,3,1.19839096221767
Che lavoro fa?,1 = Presentatore TV/attore\n2 = Cantante/Musicista\n3 = Politico/Sportivo\n4 = Altro/Non so,People/Sabrina Ferilli/selected/im_04.jpg,8,35,5,76,375.050917503984,1,0.982903599313431
Che lavoro fa?,1 = Presentatore TV/attore\n2 = Cantante/Musicista\n3 = Politico/Sportivo\n4 = Altro/Non so,People/Paris Hilton/selected/im_16.jpg,8,36,5,76,377.566628270695,4,1.93035301907366
Che lavoro fa?,1 = Presentatore TV/attore\n2 = Cantante/Musicista\n3 = Politico/Sportivo\n4 = Altro/Non so,People/Britney Spears/selected/im_22.jpg,8,37,5,76,380.082238092935,2,1.17375922775682
Che lavoro fa?,1 = Presentatore TV/attore\n2 = Cantante/Musicista\n3 = Politico/Sportivo\n4 = Altro/Non so,People/Angelina Jolie/selected/im_42.jpg,8,38,5,76,382.598030556233,1,0.838979451385967
Che lavoro fa?,1 = Presentatore TV/attore\n2 = Cantante/Musicista\n3 = Politico/Sportivo\n4 = Altro/Non so,People/Julia Roberts/selected/im_19.jpg,8,39,5,76,385.113688284324,1,1.00448817944562
Che lavoro fa?,1 = Presentatore TV/attore\n2 = Cantante/Musicista\n3 = Politico/Sportivo\n4 = Altro/Non so,People/Paolo Bonolis/selected/im_06.jpg,8,40,5,76,387.629238651978,1,0.833969868075656
Stesso volto?,1 = Stesso volto\n2 = Volto diverso,People/Jim Carrey/selected/im_69.jpg,13,33,5,77,402.523329080261,,
Stesso volto?,1 = Stesso volto\n2 = Volto diverso,People/Jim Carrey/selected/im_69.jpg,13,34,5,77,405.039015466318,1,1.05488171318211
Stesso volto?,1 = Stesso volto\n2 = Volto diverso,People/Sandra Bullock/selected/im_18.jpg,13,35,5,77,407.554754890993,2,0.819223848215188
Stesso volto?,1 = Stesso volto\n2 = Volto diverso,People/Sandra Bullock/selected/im_18.jpg,13,36,5,77,410.070333916614,1,0.883747897165449
Stesso volto?,1 = Stesso volto\n2 = Volto diverso,People/Sabrina Ferilli/selected/im_08.jpg,13,37,5,77,412.586087028678,2,0.520062072293513
Stesso volto?,1 = Stesso volto\n2 = Volto diverso,People/Sabrina Ferilli/selected/im_08.jpg,13,38,5,77,415.101671187069,1,0.824641914456151
Stesso volto?,1 = Stesso volto\n2 = Volto diverso,People/Sabrina Ferilli/selected/im_08.jpg,13,39,5,77,417.617424299129,1,0.633001827693079
Stesso volto?,1 = Stesso volto\n2 = Volto diverso,People/Romano Prodi/selected/im_13.jpg,13,40,5,77,420.13300760206,2,0.519445712190645
Stesso volto?,1 = Stesso volto\n2 = Volto diverso,People/Sabrina Ferilli/selected/im_15.jpg,12,33,5,78,435.027115139575,,
Stesso volto?,1 = Stesso volto\n2 = Volto diverso,People/Sandra Bullock/selected/im_08.jpg,12,34,5,78,437.542779711359,2,0.690364807334845
Stesso volto?,1 = Stesso volto\n2 = Volto diverso,People/Bill Gates/selected/im_16.jpg,12,35,5,78,440.058413486524,2,0.834836450707371
Stesso volto?,1 = Stesso volto\n2 = Volto diverso,People/Bill Gates/selected/im_16.jpg,12,36,5,78,442.574142645659,,
Stesso volto?,1 = Stesso volto\n2 = Volto diverso,People/Michelle Hunziker/selected/im_47.jpg,12,37,5,78,445.089811494752,2,0.696620798240474
Stesso volto?,1 = Stesso volto\n2 = Volto diverso,People/Rihanna/selected/im_10.jpg,12,38,5,78,447.605521833731,2,0.661014346518641
Stesso volto?,1 = Stesso volto\n2 = Volto diverso,People/Rihanna/selected/im_10.jpg,12,39,5,78,450.121094443391,1,0.605536376580858
Stesso volto?,1 = Stesso volto\n2 = Volto diverso,People/Matteo Salvini/selected/im_11.jpg,12,40,5,78,452.63675174375,2,0.552960987955885
Quanto affidabile?,1 = Moltissimo\n2 = Molto\n3 = Poco\n4 = Pochissimo,People/Angelina Jolie/selected/im_55.jpg,4,33,5,79,467.514220552552,2,1.33610360324747
Quanto affidabile?,1 = Moltissimo\n2 = Molto\n3 = Poco\n4 = Pochissimo,People/Britney Spears/selected/im_29.jpg,4,34,5,79,470.029857749563,2,1.16056373210449
Quanto affidabile?,1 = Moltissimo\n2 = Molto\n3 = Poco\n4 = Pochissimo,People/Donald Trump/selected/im_57.jpg,4,35,5,79,472.545532586886,4,1.05010524316822
Quanto affidabile?,1 = Moltissimo\n2 = Molto\n3 = Poco\n4 = Pochissimo,People/Hillary Clinton/selected/im_18.jpg,4,36,5,79,475.06124506452,3,1.25551227395044
Quanto affidabile?,1 = Moltissimo\n2 = Molto\n3 = Poco\n4 = Pochissimo,People/Fiorello/selected/im_59.jpg,4,37,5,79,477.576942571577,2,0.998853253684501
Quanto affidabile?,1 = Moltissimo\n2 = Molto\n3 = Poco\n4 = Pochissimo,People/Mike Tyson/selected/im_11.jpg,4,38,5,79,480.092510903927,3,0.965385883770068
Quanto affidabile?,1 = Moltissimo\n2 = Molto\n3 = Poco\n4 = Pochissimo,People/Cameron Diaz/selected/im_100.jpg,4,39,5,79,482.608205416869,2,1.12978636128901
Quanto affidabile?,1 = Moltissimo\n2 = Molto\n3 = Poco\n4 = Pochissimo,People/Paolo Bonolis/selected/im_03.jpg,4,40,5,79,485.123923455005,2,1.07807156706258
Quanti fatti ricordi?,1 = Moltissimo\n2 = Molto\n3 = Poco\n4 = Pochissimo,People/Sandra Bullock/selected/im_24.jpg,7,33,5,80,500.017997201783,2,1.31465161966844
Quanti fatti ricordi?,1 = Moltissimo\n2 = Molto\n3 = Poco\n4 = Pochissimo,People/Tom Cruise/selected/im_16.jpg,7,34,5,80,502.533620711409,2,1.07913105629268
Quanti fatti ricordi?,1 = Moltissimo\n2 = Molto\n3 = Poco\n4 = Pochissimo,People/Arnold Schwarzenegger/selected/im_01.jpg,7,35,5,80,505.049293837808,2,1.20548658871485
Quanti fatti ricordi?,1 = Moltissimo\n2 = Molto\n3 = Poco\n4 = Pochissimo,People/Johnny Depp/selected/im_68.jpg,7,36,5,80,507.564928040705,2,1.27005469394135
Quanti fatti ricordi?,1 = Moltissimo\n2 = Molto\n3 = Poco\n4 = Pochissimo,People/Fiorello/selected/im_29.jpg,7,37,5,80,510.080633674646,2,1.17742231445663
Quanti fatti ricordi?,1 = Moltissimo\n2 = Molto\n3 = Poco\n4 = Pochissimo,People/Daniel Radcliffe/selected/im_07.jpg,7,38,5,80,512.596336314473,2,1.32084516187024
Quanti fatti ricordi?,1 = Moltissimo\n2 = Molto\n3 = Poco\n4 = Pochissimo,People/Robin Williams/selected/im_20.jpg,7,39,5,80,515.112010296336,2,1.28520235303222
Quanti fatti ricordi?,1 = Moltissimo\n2 = Molto\n3 = Poco\n4 = Pochissimo,People/Hillary Clinton/selected/im_10.jpg,7,40,5,80,517.627589749685,3,0.849742441889248
