TaskName,taskIntruct,filepath,blockNum,trialnum,fmriRun,fmriBlock,time_presented,resp,RT
Quanto amichevole?,1 = Moltissimo\n2 = Molto\n3 = Poco\n4 = Pochissimo,People/Paris Hilton/selected/im_02.jpg,3,1,1,1,12.5281473475025,3,1.79484235834389
Quanto amichevole?,1 = Moltissimo\n2 = Molto\n3 = Poco\n4 = Pochissimo,People/Bill Gates/selected/im_15.jpg,3,2,1,1,15.043658725308,3,1.15889190818052
Quanto amichevole?,1 = Moltissimo\n2 = Molto\n3 = Poco\n4 = Pochissimo,People/George Clooney/selected/im_13.jpg,3,3,1,1,17.559315103239,2,1.3453556545137
Quanto amichevole?,1 = Moltissimo\n2 = Molto\n3 = Poco\n4 = Pochissimo,People/Silvio Berlusconi/selected/im_08.jpg,3,4,1,1,20.0749569383843,4,1.55180076041688
Quanto amichevole?,1 = Moltissimo\n2 = Molto\n3 = Poco\n4 = Pochissimo,People/Matteo Renzi/selected/im_14.jpg,3,5,1,1,22.5906180213351,3,1.57622451323368
Quanto amichevole?,1 = Moltissimo\n2 = Molto\n3 = Poco\n4 = Pochissimo,People/Barack Obama/selected/im_19.jpg,3,6,1,1,25.1063188830794,1,1.52061332914673
Quanto amichevole?,1 = Moltissimo\n2 = Molto\n3 = Poco\n4 = Pochissimo,People/George Bush/selected/im_85.jpg,3,7,1,1,27.6219744055525,4,1.50506837461762
Quanto amichevole?,1 = Moltissimo\n2 = Molto\n3 = Poco\n4 = Pochissimo,People/Michelle Obama/selected/im_15.jpg,3,8,1,1,30.1376551640369,2,1.43143568517189
Stesso monumento?,1 = Stesso monumento \n2 = Monumento diverso,Monuments/15 Fontana di Trevi copy.jpg,14,1,1,2,45.0149709422312,,
Stesso monumento?,1 = Stesso monumento \n2 = Monumento diverso,Monuments/15 Fontana di Trevi copy.jpg,14,2,1,2,47.5306358747421,1,1.0309928145798
Stesso monumento?,1 = Stesso monumento \n2 = Monumento diverso,Monuments/44 Versailles copy.jpg,14,3,1,2,50.0463996126491,2,0.879332520364187
Stesso monumento?,1 = Stesso monumento \n2 = Monumento diverso,Monuments/34 San Pietro copy.jpg,14,4,1,2,52.5619580406419,2,1.18491707832072
Stesso monumento?,1 = Stesso monumento \n2 = Monumento diverso,Monuments/34 San Pietro copy.jpg,14,5,1,2,55.0776255395267,1,0.990252484143639
Stesso monumento?,1 = Stesso monumento \n2 = Monumento diverso,Monuments/25 Piazza di Spagna copy.jpg,14,6,1,2,57.5932844838317,2,0.755619610348731
Stesso monumento?,1 = Stesso monumento \n2 = Monumento diverso,Monuments/35 Santa Maria del Fiore copy.jpg,14,7,1,2,60.1089973219896,2,0.779078406572808
Stesso monumento?,1 = Stesso monumento \n2 = Monumento diverso,Monuments/31 Ponte di Rialto copy.jpg,14,8,1,2,62.6245908237597,2,0.744483258475157
Stesso volto?,1 = Stesso volto\n2 = Volto diverso,People/Michelle Hunziker/selected/im_19.jpg,13,1,1,3,77.5186898318989,,
Stesso volto?,1 = Stesso volto\n2 = Volto diverso,People/Michael Jackson/selected/im_50.jpg,13,2,1,3,80.0343273897543,2,0.604347694048556
Stesso volto?,1 = Stesso volto\n2 = Volto diverso,People/Matt Damon/selected/im_36.jpg,13,3,1,3,82.5499735021895,2,0.56877304657246
Stesso volto?,1 = Stesso volto\n2 = Volto diverso,People/Matt Damon/selected/im_36.jpg,13,4,1,3,85.0656059272969,1,0.520234788995367
Stesso volto?,1 = Stesso volto\n2 = Volto diverso,People/Roberto Maroni/selected/im_37.jpg,13,5,1,3,87.5812640161439,2,0.649733589001698
Stesso volto?,1 = Stesso volto\n2 = Volto diverso,People/Justin Bieber/selected/im_06.jpg,13,6,1,3,90.0970431522946,2,0.559979794083119
Stesso volto?,1 = Stesso volto\n2 = Volto diverso,People/Fiorello/selected/im_77.jpg,13,7,1,3,92.6125836156698,2,0.74358246122938
Stesso volto?,1 = Stesso volto\n2 = Volto diverso,People/Fiorello/selected/im_77.jpg,13,8,1,3,95.128231439021,1,0.51994778284643
Stesso volto?,1 = Stesso volto\n2 = Volto diverso,People/Sabrina Ferilli/selected/im_15.jpg,12,1,1,4,110.022381774639,,
Stesso volto?,1 = Stesso volto\n2 = Volto diverso,People/Sabrina Ferilli/selected/im_15.jpg,12,2,1,4,112.537993241027,1,0.79886600491227
Stesso volto?,1 = Stesso volto\n2 = Volto diverso,People/Romano Prodi/selected/im_13.jpg,12,3,1,4,115.053594014189,2,0.584289343260025
Stesso volto?,1 = Stesso volto\n2 = Volto diverso,People/Hillary Clinton/selected/im_14.jpg,12,4,1,4,117.5692589467,2,0.519711248716703
Stesso volto?,1 = Stesso volto\n2 = Volto diverso,People/Michael Jackson/selected/im_28.jpg,12,5,1,4,120.084936283352,2,0.520149670926912
Stesso volto?,1 = Stesso volto\n2 = Volto diverso,People/Michael Jackson/selected/im_28.jpg,12,6,1,4,122.600582395788,1,0.519555555365514
Stesso volto?,1 = Stesso volto\n2 = Volto diverso,People/Robin Williams/selected/im_10.jpg,12,7,1,4,125.116344850507,2,0.726896325764756
Stesso volto?,1 = Stesso volto\n2 = Volto diverso,People/George Bush/selected/im_05.jpg,12,8,1,4,127.631887452528,2,0.672502886100119
Memoria remota?,1 = Moltissimo\n2 = Molto\n3 = Poco\n4 = Pochissimo,People/Fiorello/selected/im_77.jpg,1,1,1,5,142.526042065434,1,1.20188637037245
Memoria remota?,1 = Moltissimo\n2 = Molto\n3 = Poco\n4 = Pochissimo,People/Sandra Bullock/selected/im_02.jpg,1,2,1,5,145.0416163194,3,1.58643440412379
Memoria remota?,1 = Moltissimo\n2 = Molto\n3 = Poco\n4 = Pochissimo,People/Giorgio Napolitano/selected/im_38.jpg,1,3,1,5,147.557280396453,2,1.69188371417658
Memoria remota?,1 = Moltissimo\n2 = Molto\n3 = Poco\n4 = Pochissimo,People/Rihanna/selected/im_10.jpg,1,4,1,5,150.072901272879,1,1.54026277102639
Memoria remota?,1 = Moltissimo\n2 = Molto\n3 = Poco\n4 = Pochissimo,People/Sabrina Ferilli/selected/im_10.jpg,1,5,1,5,152.58857860953,3,1.66676490175632
Memoria remota?,1 = Moltissimo\n2 = Molto\n3 = Poco\n4 = Pochissimo,People/Donald Trump/selected/im_06.jpg,1,6,1,5,155.104219161489,4,1.09418078992167
Memoria remota?,1 = Moltissimo\n2 = Molto\n3 = Poco\n4 = Pochissimo,People/Jim Carrey/selected/im_37.jpg,1,7,1,5,157.619881099896,2,1.56061625481379
Memoria remota?,1 = Moltissimo\n2 = Molto\n3 = Poco\n4 = Pochissimo,People/Filippo Inzaghi/selected/im_01.jpg,1,8,1,5,160.13556613567,3,1.34602291172996
Quanto attraente?,1 = Moltissimo\n2 = Molto\n3 = Poco\n4 = Pochissimo,People/Michael Jackson/selected/im_06.jpg,2,1,1,6,175.012985424279,3,1.33714154707013
Quanto attraente?,1 = Moltissimo\n2 = Molto\n3 = Poco\n4 = Pochissimo,People/Matteo Renzi/selected/im_16.jpg,2,2,1,6,177.528568660555,4,0.983565369180724
Quanto attraente?,1 = Moltissimo\n2 = Molto\n3 = Poco\n4 = Pochissimo,People/Fiorello/selected/im_59.jpg,2,3,1,6,180.044226321672,3,1.58688138091384
Quanto attraente?,1 = Moltissimo\n2 = Molto\n3 = Poco\n4 = Pochissimo,People/Cameron Diaz/selected/im_32.jpg,2,4,1,6,182.559887404623,2,1.03243255034613
Quanto attraente?,1 = Moltissimo\n2 = Molto\n3 = Poco\n4 = Pochissimo,People/Filippo Inzaghi/selected/im_14.jpg,2,5,1,6,185.075609652817,4,1.01679948364472
Quanto attraente?,1 = Moltissimo\n2 = Molto\n3 = Poco\n4 = Pochissimo,People/Tom Cruise/selected/im_13.jpg,2,6,1,6,187.59122667968,4,1.24330892854414
Quanto attraente?,1 = Moltissimo\n2 = Molto\n3 = Poco\n4 = Pochissimo,People/Matteo Salvini/selected/im_77.jpg,2,7,1,6,190.106882629883,4,0.887652276865992
Quanto attraente?,1 = Moltissimo\n2 = Molto\n3 = Poco\n4 = Pochissimo,People/Angelino Alfano/selected/im_12.jpg,2,8,1,6,192.622547990122,4,0.654068622272462
Stesso volto?,1 = Stesso volto\n2 = Volto diverso,People/Roberto Maroni/selected/im_36.jpg,11,1,1,7,207.516598664886,,
Stesso volto?,1 = Stesso volto\n2 = Volto diverso,People/Hillary Clinton/selected/im_18.jpg,11,2,1,7,210.032205853984,2,0.638113047914885
Stesso volto?,1 = Stesso volto\n2 = Volto diverso,People/Angelina Jolie/selected/im_46.jpg,11,3,1,7,212.547926818992,2,0.520329744829723
Stesso volto?,1 = Stesso volto\n2 = Volto diverso,People/Angelina Jolie/selected/im_46.jpg,11,4,1,7,215.063583624653,1,0.607802461066967
Stesso volto?,1 = Stesso volto\n2 = Volto diverso,People/Barack Obama/selected/im_24.jpg,11,5,1,7,217.579195946499,2,0.5202377830974
Stesso volto?,1 = Stesso volto\n2 = Volto diverso,People/Barack Obama/selected/im_24.jpg,11,6,1,7,220.094965244882,1,0.519557694009563
Stesso volto?,1 = Stesso volto\n2 = Volto diverso,People/Matteo Renzi/selected/im_19.jpg,11,7,1,7,222.610527094706,2,0.755140553883393
Stesso volto?,1 = Stesso volto\n2 = Volto diverso,People/Matteo Renzi/selected/im_19.jpg,11,8,1,7,225.126179195348,1,0.519510643822287
Volto distintivo?,1 = Moltissimo\n2 = Molto\n3 = Poco\n4 = Pochissimo,People/Jim Carrey/selected/im_51 (1).jpg,9,1,1,8,240.02022644828,3,1.30212080863021
Volto distintivo?,1 = Moltissimo\n2 = Molto\n3 = Poco\n4 = Pochissimo,People/Roberto Maroni/selected/im_14.jpg,9,2,1,8,242.535884537127,3,1.1055570977569
Volto distintivo?,1 = Moltissimo\n2 = Molto\n3 = Poco\n4 = Pochissimo,People/Bill Clinton/selected/im_12.jpg,9,3,1,8,245.051512684944,3,0.932981283862318
Volto distintivo?,1 = Moltissimo\n2 = Molto\n3 = Poco\n4 = Pochissimo,People/Michael Jackson/selected/im_33.jpg,9,4,1,8,247.56720499211,1,1.61840928445781
Volto distintivo?,1 = Moltissimo\n2 = Molto\n3 = Poco\n4 = Pochissimo,People/Laura Pausini/selected/im_36.jpg,9,5,1,8,250.082855381836,3,1.20483128443993
Volto distintivo?,1 = Moltissimo\n2 = Molto\n3 = Poco\n4 = Pochissimo,People/Silvio Berlusconi/selected/im_05.jpg,9,6,1,8,252.598504488375,3,1.25027321188827
Volto distintivo?,1 = Moltissimo\n2 = Molto\n3 = Poco\n4 = Pochissimo,People/Donald Trump/selected/im_16.jpg,9,7,1,8,255.114144184874,3,1.13571455762758
Volto distintivo?,1 = Moltissimo\n2 = Molto\n3 = Poco\n4 = Pochissimo,People/Matteo Salvini/selected/im_14.jpg,9,8,1,8,257.629908778239,3,1.22006656318445
Quanti fatti ricordi?,1 = Moltissimo\n2 = Molto\n3 = Poco\n4 = Pochissimo,People/Justin Bieber/selected/im_31.jpg,7,1,1,9,272.523956031171,2,1.56853266288272
Quanti fatti ricordi?,1 = Moltissimo\n2 = Molto\n3 = Poco\n4 = Pochissimo,People/Michael Jackson/selected/im_06.jpg,7,2,1,9,275.039498633192,2,0.996026825450826
Quanti fatti ricordi?,1 = Moltissimo\n2 = Molto\n3 = Poco\n4 = Pochissimo,People/Angelina Jolie/selected/im_55.jpg,7,3,1,9,277.555182385779,2,0.939427587407408
Quanti fatti ricordi?,1 = Moltissimo\n2 = Molto\n3 = Poco\n4 = Pochissimo,People/Hillary Clinton/selected/im_31.jpg,7,4,1,9,280.07080454539,2,1.0638933004393
Quanti fatti ricordi?,1 = Moltissimo\n2 = Molto\n3 = Poco\n4 = Pochissimo,People/Silvio Berlusconi/selected/Silvio Berlusconi_8.jpg,7,5,1,9,282.586500274389,2,0.930281886232478
Quanti fatti ricordi?,1 = Moltissimo\n2 = Molto\n3 = Poco\n4 = Pochissimo,People/Romano Prodi/selected/im_30.jpg,7,6,1,9,285.102224233498,3,1.31757508461669
Quanti fatti ricordi?,1 = Moltissimo\n2 = Molto\n3 = Poco\n4 = Pochissimo,People/Sabrina Ferilli/selected/im_07.jpg,7,7,1,9,287.617791643801,2,0.96320418626965
Quanti fatti ricordi?,1 = Moltissimo\n2 = Molto\n3 = Poco\n4 = Pochissimo,People/Paris Hilton/selected/im_39.jpg,7,8,1,9,290.133502771043,3,1.64762531283122
Stesso monumento?,1 = Stesso monumento \n2 = Monumento diverso,Monuments/26 Piazza San Marco  copy.jpg,15,1,1,10,305.027598785078,,
Stesso monumento?,1 = Stesso monumento \n2 = Monumento diverso,Monuments/26 Piazza San Marco  copy.jpg,15,2,1,10,307.543153791241,1,0.519382325126571
Stesso monumento?,1 = Stesso monumento \n2 = Monumento diverso,Monuments/43 Tower Bridge copy.jpg,15,3,1,10,310.058787499534,2,0.519827163270747
Stesso monumento?,1 = Stesso monumento \n2 = Monumento diverso,Monuments/43 Tower Bridge copy.jpg,15,4,1,10,312.574454142961,1,0.520263874566808
Stesso monumento?,1 = Stesso monumento \n2 = Monumento diverso,Monuments/15 Fontana di Trevi copy.jpg,15,5,1,10,315.090193500317,2,0.519603888740676
Stesso monumento?,1 = Stesso monumento \n2 = Monumento diverso,Monuments/28 Piramidi di Ghiza copy.jpg,15,6,1,10,317.605769465197,2,0.520120157627389
Stesso monumento?,1 = Stesso monumento \n2 = Monumento diverso,Monuments/28 Piramidi di Ghiza copy.jpg,15,7,1,10,320.12142113811,1,0.706649774223479
Stesso monumento?,1 = Stesso monumento \n2 = Monumento diverso,Monuments/42 Tour Eiffel copy.jpg,15,8,1,10,322.637093342013,2,0.731026476853003
Quanto familiare?,1 = Moltissimo\n2 = Molto\n3 = Poco\n4 = Pochissimo,People/Angelino Alfano/selected/im_14.jpg,5,1,1,11,337.514574651326,3,1.6951729500779
Quanto familiare?,1 = Moltissimo\n2 = Molto\n3 = Poco\n4 = Pochissimo,People/Julia Roberts/selected/im_02.jpg,5,2,1,11,340.030120247449,2,1.16065286841513
Quanto familiare?,1 = Moltissimo\n2 = Molto\n3 = Poco\n4 = Pochissimo,People/Michelle Obama/selected/im_35.jpg,5,3,1,11,342.545872436674,2,1.30505246309986
Quanto familiare?,1 = Moltissimo\n2 = Molto\n3 = Poco\n4 = Pochissimo,People/Sabrina Ferilli/selected/im_08.jpg,5,4,1,11,345.061439846975,2,1.06953675667683
Quanto familiare?,1 = Moltissimo\n2 = Molto\n3 = Poco\n4 = Pochissimo,People/Giorgio Napolitano/selected/im_03.jpg,5,5,1,11,347.577147980113,3,1.01383275539956
Quanto familiare?,1 = Moltissimo\n2 = Molto\n3 = Poco\n4 = Pochissimo,People/Angelina Jolie/selected/im_30.jpg,5,6,1,11,350.092779977493,2,0.980338581710384
Quanto familiare?,1 = Moltissimo\n2 = Molto\n3 = Poco\n4 = Pochissimo,People/Laura Pausini/selected/im_03.jpg,5,7,1,11,352.608410263956,2,1.24367549228373
Quanto familiare?,1 = Moltissimo\n2 = Molto\n3 = Poco\n4 = Pochissimo,People/George Bush/selected/im_05.jpg,5,8,1,11,355.124083323317,3,0.951207243675526
Stesso monumento?,1 = Stesso monumento \n2 = Monumento diverso,Monuments/43 Tower Bridge copy.jpg,16,1,1,12,370.018103629323,,
Stesso monumento?,1 = Stesso monumento \n2 = Monumento diverso,Monuments/43 Tower Bridge copy.jpg,16,2,1,12,372.533763429086,1,0.594025310434517
Stesso monumento?,1 = Stesso monumento \n2 = Monumento diverso,Monuments/42 Tour Eiffel copy.jpg,16,3,1,12,375.049433922073,2,0.519578225002988
Stesso monumento?,1 = Stesso monumento \n2 = Monumento diverso,Monuments/17 House of Parliament copy.jpg,16,4,1,12,377.565062925351,2,0.753907411217369
Stesso monumento?,1 = Stesso monumento \n2 = Monumento diverso,Monuments/19 Mart copy.jpg,16,5,1,12,380.08071588145,2,0.520333594391559
Stesso monumento?,1 = Stesso monumento \n2 = Monumento diverso,Monuments/28 Piramidi di Ghiza copy.jpg,16,6,1,12,382.596374398025,2,0.519761293006013
Stesso monumento?,1 = Stesso monumento \n2 = Monumento diverso,Monuments/28 Piramidi di Ghiza copy.jpg,16,7,1,12,385.112041896909,1,0.520181750600386
Stesso monumento?,1 = Stesso monumento \n2 = Monumento diverso,Monuments/41 Torre di Pisa copy.jpg,16,8,1,12,387.627718805832,2,0.519597900534791
Nome comune?,1 = Moltissimo\n2 = Molto\n3 = Poco\n4 = Pochissimo,People/Matt Damon/selected/im_36.jpg,6,1,1,13,402.521841339065,2,1.54314095937116
Nome comune?,1 = Moltissimo\n2 = Molto\n3 = Poco\n4 = Pochissimo,People/Tom Cruise/selected/im_16.jpg,6,2,1,13,405.03738223017,3,1.38650959888037
Nome comune?,1 = Moltissimo\n2 = Molto\n3 = Poco\n4 = Pochissimo,People/George Bush/selected/im_24.jpg,6,3,1,13,407.553100201076,2,1.71208620963262
Nome comune?,1 = Moltissimo\n2 = Molto\n3 = Poco\n4 = Pochissimo,People/Cameron Diaz/selected/im_79.jpg,6,4,1,13,410.068717655669,3,1.47844652254025
Nome comune?,1 = Moltissimo\n2 = Molto\n3 = Poco\n4 = Pochissimo,People/Barack Obama/selected/im_11.jpg,6,5,1,13,412.584396275508,3,1.80294653943747
Nome comune?,1 = Moltissimo\n2 = Molto\n3 = Poco\n4 = Pochissimo,People/Silvio Berlusconi/selected/im_01.jpg,6,6,1,13,415.100120662348,3,1.76731200990434
Nome comune?,1 = Moltissimo\n2 = Molto\n3 = Poco\n4 = Pochissimo,People/Donald Trump/selected/im_18.jpg,6,7,1,13,417.615761214305,3,1.09055664222433
Nome comune?,1 = Moltissimo\n2 = Molto\n3 = Poco\n4 = Pochissimo,People/Sabrina Ferilli/selected/im_03.jpg,6,8,1,13,420.131350011057,1,1.45625765367549
Che lavoro fa?,1 = Presentatore TV/attore\n2 = Cantante/Musicista\n3 = Politico/Sportivo\n4 = Altro/Non so,People/Paris Hilton/selected/im_01.jpg,8,1,1,14,435.025491792094,4,2.044665171612
Che lavoro fa?,1 = Presentatore TV/attore\n2 = Cantante/Musicista\n3 = Politico/Sportivo\n4 = Altro/Non so,People/Britney Spears/selected/im_72.jpg,8,2,1,14,437.541029261367,2,1.51018144691443
Che lavoro fa?,1 = Presentatore TV/attore\n2 = Cantante/Musicista\n3 = Politico/Sportivo\n4 = Altro/Non so,People/Michael Jackson/selected/im_08.jpg,8,3,1,14,440.056679223364,2,0.915550899962909
Che lavoro fa?,1 = Presentatore TV/attore\n2 = Cantante/Musicista\n3 = Politico/Sportivo\n4 = Altro/Non so,People/Michelle Hunziker/selected/im_19.jpg,8,4,1,14,442.572341589501,1,1.03997768965746
Che lavoro fa?,1 = Presentatore TV/attore\n2 = Cantante/Musicista\n3 = Politico/Sportivo\n4 = Altro/Non so,People/Justin Bieber/selected/im_08.jpg,8,5,1,14,445.088083940958,2,0.983348082854718
Che lavoro fa?,1 = Presentatore TV/attore\n2 = Cantante/Musicista\n3 = Politico/Sportivo\n4 = Altro/Non so,People/George Clooney/selected/im_15.jpg,8,6,1,14,447.60368514185,1,1.16781903984338
Che lavoro fa?,1 = Presentatore TV/attore\n2 = Cantante/Musicista\n3 = Politico/Sportivo\n4 = Altro/Non so,People/Giorgio Napolitano/selected/im_07.jpg,8,7,1,14,450.119336814761,3,1.3931192948985
Che lavoro fa?,1 = Presentatore TV/attore\n2 = Cantante/Musicista\n3 = Politico/Sportivo\n4 = Altro/Non so,People/Barack Obama/selected/im_06.jpg,8,8,1,14,452.634959829833,3,1.07874704492679
Sicuramente conoscere\n(nome e cognome)?,1 = Moltissimo\n2 = Molto\n3 = Poco\n4 = Pochissimo,People/Bill Gates/selected/im_16.jpg,10,1,1,15,467.529053705224,4,1.2451691219012
Sicuramente conoscere\n(nome e cognome)?,1 = Moltissimo\n2 = Molto\n3 = Poco\n4 = Pochissimo,People/Sandra Bullock/selected/im_05.jpg,10,2,1,15,470.044642501975,4,1.11064193994025
Sicuramente conoscere\n(nome e cognome)?,1 = Moltissimo\n2 = Molto\n3 = Poco\n4 = Pochissimo,People/Sabrina Ferilli/selected/im_14.jpg,10,3,1,15,472.560308289943,1,1.11409071875096
Sicuramente conoscere\n(nome e cognome)?,1 = Moltissimo\n2 = Molto\n3 = Poco\n4 = Pochissimo,People/Julia Roberts/selected/im_106.jpg,10,4,1,15,475.076036954073,1,0.959431616613074
Sicuramente conoscere\n(nome e cognome)?,1 = Moltissimo\n2 = Molto\n3 = Poco\n4 = Pochissimo,People/Michelle Hunziker/selected/im_29.jpg,10,5,1,15,477.591676650574,1,1.02488185056063
Sicuramente conoscere\n(nome e cognome)?,1 = Moltissimo\n2 = Molto\n3 = Poco\n4 = Pochissimo,People/Michael Jackson/selected/im_50.jpg,10,6,1,15,480.107307364766,1,0.813301858182967
Sicuramente conoscere\n(nome e cognome)?,1 = Moltissimo\n2 = Molto\n3 = Poco\n4 = Pochissimo,People/Paris Hilton/selected/im_18.jpg,10,7,1,15,482.622931663023,1,0.919721685304467
Sicuramente conoscere\n(nome e cognome)?,1 = Moltissimo\n2 = Molto\n3 = Poco\n4 = Pochissimo,People/Jim Carrey/selected/im_07.jpg,10,8,1,15,485.13858162502,1,0.944181367354759
Quanto affidabile?,1 = Moltissimo\n2 = Molto\n3 = Poco\n4 = Pochissimo,People/Laura Pausini/selected/im_10.jpg,4,1,1,16,500.015964984394,2,0.807323062419528
Quanto affidabile?,1 = Moltissimo\n2 = Molto\n3 = Poco\n4 = Pochissimo,People/Julia Roberts/selected/im_31.jpg,4,2,1,16,502.531647453794,2,0.590579953453926
Quanto affidabile?,1 = Moltissimo\n2 = Molto\n3 = Poco\n4 = Pochissimo,People/Bill Clinton/selected/im_16.jpg,4,3,1,16,505.047284156191,4,0.719172395740316
Quanto affidabile?,1 = Moltissimo\n2 = Molto\n3 = Poco\n4 = Pochissimo,People/Daniel Radcliffe/selected/im_16.jpg,4,4,1,16,507.562944811412,2,1.08563946980394
Quanto affidabile?,1 = Moltissimo\n2 = Molto\n3 = Poco\n4 = Pochissimo,People/Cameron Diaz/selected/im_14.jpg,4,5,1,16,510.078590496119,2,0.830054291640408
Quanto affidabile?,1 = Moltissimo\n2 = Molto\n3 = Poco\n4 = Pochissimo,People/Matteo Salvini/selected/im_71.jpg,4,6,1,16,512.594252434526,4,0.717432821955299
Quanto affidabile?,1 = Moltissimo\n2 = Molto\n3 = Poco\n4 = Pochissimo,People/Jim Carrey/selected/im_69.jpg,4,7,1,16,515.109964417226,1,1.10389280427262
Quanto affidabile?,1 = Moltissimo\n2 = Molto\n3 = Poco\n4 = Pochissimo,People/Michelle Hunziker/selected/im_12.jpg,4,8,1,16,517.625579733174,2,0.867330017292261
Quanti fatti ricordi?,1 = Moltissimo\n2 = Molto\n3 = Poco\n4 = Pochissimo,People/Barack Obama/selected/im_24.jpg,7,9,2,17,12.5280823326975,2,0.93477004648048
Quanti fatti ricordi?,1 = Moltissimo\n2 = Molto\n3 = Poco\n4 = Pochissimo,People/Michelle Obama/selected/im_28.jpg,7,10,2,17,15.0436612916819,2,0.960808903948418
Quanti fatti ricordi?,1 = Moltissimo\n2 = Molto\n3 = Poco\n4 = Pochissimo,People/Roberto Maroni/selected/im_20.jpg,7,11,2,17,17.5593647198002,4,0.864158406862771
Quanti fatti ricordi?,1 = Moltissimo\n2 = Molto\n3 = Poco\n4 = Pochissimo,People/Fiorello/selected/im_29.jpg,7,12,2,17,20.0750583101544,2,1.11060558297504
Quanti fatti ricordi?,1 = Moltissimo\n2 = Molto\n3 = Poco\n4 = Pochissimo,People/Donald Trump/selected/im_24.jpg,7,13,2,17,22.5906475346346,3,1.53706934641741
Quanti fatti ricordi?,1 = Moltissimo\n2 = Molto\n3 = Poco\n4 = Pochissimo,People/Britney Spears/selected/im_55.jpg,7,14,2,17,25.1063851810723,3,1.36346783841691
Quanti fatti ricordi?,1 = Moltissimo\n2 = Molto\n3 = Poco\n4 = Pochissimo,People/Matteo Salvini/selected/im_11.jpg,7,15,2,17,27.6220471194811,2,1.50991711039933
Quanti fatti ricordi?,1 = Moltissimo\n2 = Molto\n3 = Poco\n4 = Pochissimo,People/Sandra Bullock/selected/im_25.jpg,7,16,2,17,30.137653025391,3,1.59638680216449
Memoria remota?,1 = Moltissimo\n2 = Molto\n3 = Poco\n4 = Pochissimo,People/Cameron Diaz/selected/im_16.jpg,1,9,2,18,45.0149623876514,2,1.6225770756937
Memoria remota?,1 = Moltissimo\n2 = Molto\n3 = Poco\n4 = Pochissimo,People/Matteo Renzi/selected/im_49.jpg,1,10,2,18,47.5306538393597,3,1.48590012784916
Memoria remota?,1 = Moltissimo\n2 = Molto\n3 = Poco\n4 = Pochissimo,People/Johnny Depp/selected/im_17.jpg,1,11,2,18,50.0463080786449,2,1.15039464414986
Memoria remota?,1 = Moltissimo\n2 = Molto\n3 = Poco\n4 = Pochissimo,People/Bill Clinton/selected/im_19.jpg,1,12,2,18,52.5619490583322,3,1.25580118130165
Memoria remota?,1 = Moltissimo\n2 = Molto\n3 = Poco\n4 = Pochissimo,People/Giorgia Meloni/selected/im_24.jpg,1,13,2,18,55.0776246840687,4,1.30226238692558
Memoria remota?,1 = Moltissimo\n2 = Molto\n3 = Poco\n4 = Pochissimo,People/Britney Spears/selected/im_30 (1).jpg,1,14,2,18,57.5932900443077,2,1.24670509668977
Memoria remota?,1 = Moltissimo\n2 = Molto\n3 = Poco\n4 = Pochissimo,People/Paris Hilton/selected/im_14.jpg,1,15,2,18,60.1090003160916,3,1.17205099042803
Memoria remota?,1 = Moltissimo\n2 = Molto\n3 = Poco\n4 = Pochissimo,People/Julia Roberts/selected/im_04.jpg,1,16,2,18,62.6245566054404,2,0.997463994843201
Stesso volto?,1 = Stesso volto\n2 = Volto diverso,People/Filippo Inzaghi/selected/im_09.jpg,13,9,2,19,77.5187090797026,,
Stesso volto?,1 = Stesso volto\n2 = Volto diverso,People/Filippo Inzaghi/selected/im_09.jpg,13,10,2,19,80.0342649413215,1,0.718400344920155
Stesso volto?,1 = Stesso volto\n2 = Volto diverso,People/Filippo Inzaghi/selected/im_09.jpg,13,11,2,19,82.5499670862537,1,0.51972236967049
Stesso volto?,1 = Stesso volto\n2 = Volto diverso,People/Laura Pausini/selected/im_07.jpg,13,12,2,19,85.0655815467453,2,0.520195437928123
Stesso volto?,1 = Stesso volto\n2 = Volto diverso,People/Mike Tyson/selected/im_04.jpg,13,13,2,19,87.5812400633204,2,0.795725190970188
Stesso volto?,1 = Stesso volto\n2 = Volto diverso,People/Mike Tyson/selected/im_04.jpg,13,14,2,19,90.0969280931968,1,0.520026057249197
Stesso volto?,1 = Stesso volto\n2 = Volto diverso,People/Giorgia Meloni/selected/im_49.jpg,13,15,2,19,92.6125814770257,2,0.57449563267437
Stesso volto?,1 = Stesso volto\n2 = Volto diverso,People/Giorgia Meloni/selected/im_49.jpg,13,16,2,19,95.128228017189,1,0.519896455367416
Volto distintivo?,1 = Moltissimo\n2 = Molto\n3 = Poco\n4 = Pochissimo,People/Matt Damon/selected/im_09.jpg,9,9,2,20,110.022358677274,2,1.15033048480109
Volto distintivo?,1 = Moltissimo\n2 = Molto\n3 = Poco\n4 = Pochissimo,People/Filippo Inzaghi/selected/im_16.jpg,9,10,2,20,112.537936353072,3,1.13381800730531
Volto distintivo?,1 = Moltissimo\n2 = Molto\n3 = Poco\n4 = Pochissimo,People/Julia Roberts/selected/im_09.jpg,9,11,2,20,115.053535843048,2,1.01843212518361
Volto distintivo?,1 = Moltissimo\n2 = Molto\n3 = Poco\n4 = Pochissimo,People/Bill Gates/selected/im_43.jpg,9,12,2,20,117.569204197391,3,0.922854800124696
Volto distintivo?,1 = Moltissimo\n2 = Molto\n3 = Poco\n4 = Pochissimo,People/Cameron Diaz/selected/im_78.jpg,9,13,2,20,120.084905059135,2,1.02719287026957
Volto distintivo?,1 = Moltissimo\n2 = Molto\n3 = Poco\n4 = Pochissimo,People/Angelino Alfano/selected/im_12.jpg,9,14,2,20,122.60054689428,2,1.51367984228636
Volto distintivo?,1 = Moltissimo\n2 = Molto\n3 = Poco\n4 = Pochissimo,People/Justin Bieber/selected/im_38.jpg,9,15,2,20,125.116227652765,4,1.53908737177153
Volto distintivo?,1 = Moltissimo\n2 = Molto\n3 = Poco\n4 = Pochissimo,People/Tom Cruise/selected/im_11.jpg,9,16,2,20,127.631893440734,4,1.52444620858842
Sicuramente conoscere\n(nome e cognome)?,1 = Moltissimo\n2 = Molto\n3 = Poco\n4 = Pochissimo,People/Johnny Depp/selected/im_09.jpg,10,9,2,21,142.525923156776,1,1.03483039904131
Sicuramente conoscere\n(nome e cognome)?,1 = Moltissimo\n2 = Molto\n3 = Poco\n4 = Pochissimo,People/George Clooney/selected/im_15.jpg,10,10,2,21,145.041494844369,1,0.740473726960772
Sicuramente conoscere\n(nome e cognome)?,1 = Moltissimo\n2 = Molto\n3 = Poco\n4 = Pochissimo,People/Angelino Alfano/selected/im_65.jpg,10,11,2,21,147.557176886039,1,0.844872534622482
Sicuramente conoscere\n(nome e cognome)?,1 = Moltissimo\n2 = Molto\n3 = Poco\n4 = Pochissimo,People/Giorgia Meloni/selected/im_30.jpg,10,12,2,21,150.07282855895,2,1.69036784264972
Sicuramente conoscere\n(nome e cognome)?,1 = Moltissimo\n2 = Molto\n3 = Poco\n4 = Pochissimo,People/Silvio Berlusconi/selected/Silvio Berlusconi_6.jpg,10,13,2,21,152.58857005495,1,0.954656877946036
Sicuramente conoscere\n(nome e cognome)?,1 = Moltissimo\n2 = Molto\n3 = Poco\n4 = Pochissimo,People/Donald Trump/selected/im_57.jpg,10,14,2,21,155.104221300133,1,0.978030556103477
Sicuramente conoscere\n(nome e cognome)?,1 = Moltissimo\n2 = Molto\n3 = Poco\n4 = Pochissimo,People/Angelina Jolie/selected/im_42.jpg,10,15,2,21,157.619810096885,1,0.725552829020671
Sicuramente conoscere\n(nome e cognome)?,1 = Moltissimo\n2 = Molto\n3 = Poco\n4 = Pochissimo,People/George Bush/selected/im_15.jpg,10,16,2,21,160.135539616473,1,0.730967022522236
Stesso monumento?,1 = Stesso monumento \n2 = Monumento diverso,Monuments/17 House of Parliament copy.jpg,14,9,2,22,175.012940512735,,
Stesso monumento?,1 = Stesso monumento \n2 = Monumento diverso,Monuments/17 House of Parliament copy.jpg,14,10,2,22,177.528469427429,1,0.529507097950045
Stesso monumento?,1 = Stesso monumento \n2 = Monumento diverso,Monuments/30 Ponte di Brooklyn  copy.jpg,14,11,2,22,180.044144197705,2,0.519923402292989
Stesso monumento?,1 = Stesso monumento \n2 = Monumento diverso,Monuments/40 Teatro dell Opera copy.jpg,14,12,2,22,182.559782611021,2,0.520377222746902
Stesso monumento?,1 = Stesso monumento \n2 = Monumento diverso,Monuments/38 Stonehenge copy.jpg,14,13,2,22,185.075496732365,2,0.542859085968303
Stesso monumento?,1 = Stesso monumento \n2 = Monumento diverso,Monuments/38 Stonehenge copy.jpg,14,14,2,22,187.591150543922,1,0.520187738806271
Stesso monumento?,1 = Stesso monumento \n2 = Monumento diverso,Monuments/38 Stonehenge copy.jpg,14,15,2,22,190.106851405666,1,0.519566248591218
Stesso monumento?,1 = Stesso monumento \n2 = Monumento diverso,Monuments/23 Palazzo vecchio copy.jpg,14,16,2,22,192.622488963523,2,0.520014508567328
Quanto amichevole?,1 = Moltissimo\n2 = Molto\n3 = Poco\n4 = Pochissimo,People/Arnold Schwarzenegger/selected/im_01.jpg,3,9,2,23,207.516479756228,3,1.2575642801803
Quanto amichevole?,1 = Moltissimo\n2 = Molto\n3 = Poco\n4 = Pochissimo,People/Jim Carrey/selected/im_59.jpg,3,10,2,23,210.032151104673,1,1.08308550002948
Quanto amichevole?,1 = Moltissimo\n2 = Molto\n3 = Poco\n4 = Pochissimo,People/Britney Spears/selected/im_29.jpg,3,11,2,23,212.547801922128,2,1.06852132806489
Quanto amichevole?,1 = Moltissimo\n2 = Molto\n3 = Poco\n4 = Pochissimo,People/Angelina Jolie/selected/im_14.jpg,3,12,2,23,215.063513904828,2,1.01588457134494
Quanto amichevole?,1 = Moltissimo\n2 = Molto\n3 = Poco\n4 = Pochissimo,People/Angelino Alfano/selected/im_68.jpg,3,13,2,23,217.579116388906,4,1.07931293037473
Quanto amichevole?,1 = Moltissimo\n2 = Molto\n3 = Poco\n4 = Pochissimo,People/Justin Bieber/selected/im_32.jpg,3,14,2,23,220.094745392182,3,1.62486841987084
Quanto amichevole?,1 = Moltissimo\n2 = Molto\n3 = Poco\n4 = Pochissimo,People/Robin Williams/selected/im_04.jpg,3,15,2,23,222.610406047403,1,1.48930656149059
Quanto amichevole?,1 = Moltissimo\n2 = Molto\n3 = Poco\n4 = Pochissimo,People/Johnny Depp/selected/im_50.jpg,3,16,2,23,225.126053443026,1,0.794654157589321
Stesso monumento?,1 = Stesso monumento \n2 = Monumento diverso,Monuments/24 Pantheon copy.jpg,15,9,2,24,240.020206345018,,
Stesso monumento?,1 = Stesso monumento \n2 = Monumento diverso,Monuments/24 Pantheon copy.jpg,15,10,2,24,242.535737398355,1,0.519493106934533
Stesso monumento?,1 = Stesso monumento \n2 = Monumento diverso,Monuments/1 Acropoli copy.jpg,15,11,2,24,245.051408319072,2,0.520024346335049
Stesso monumento?,1 = Stesso monumento \n2 = Monumento diverso,Monuments/27 Piazza San Pietro copy.jpg,15,12,2,24,247.567030906413,2,0.727324482479162
Stesso monumento?,1 = Stesso monumento \n2 = Monumento diverso,Monuments/39 Taj Mahal copy.jpg,15,13,2,24,250.082720219476,2,0.533760007254386
Stesso monumento?,1 = Stesso monumento \n2 = Monumento diverso,Monuments/41 Torre di Pisa copy.jpg,15,14,2,24,252.598358205061,2,0.520202281591992
Stesso monumento?,1 = Stesso monumento \n2 = Monumento diverso,Monuments/41 Torre di Pisa copy.jpg,15,15,2,24,255.114127503444,1,0.616564061612735
Stesso monumento?,1 = Stesso monumento \n2 = Monumento diverso,Monuments/25 Piazza di Spagna copy.jpg,15,16,2,24,257.629762067198,2,0.519973874314019
Stesso monumento?,1 = Stesso monumento \n2 = Monumento diverso,Monuments/41 Torre di Pisa copy.jpg,16,9,2,25,272.523742594407,,
Stesso monumento?,1 = Stesso monumento \n2 = Monumento diverso,Monuments/40 Teatro dell Opera copy.jpg,16,10,2,25,275.039367748122,2,0.53098490159573
Stesso monumento?,1 = Stesso monumento \n2 = Monumento diverso,Monuments/33 Porta di Brandeburgo copy.jpg,16,11,2,25,277.555040807483,2,0.519400289742407
Stesso monumento?,1 = Stesso monumento \n2 = Monumento diverso,Monuments/13 Duomo di Trento copy.jpg,16,12,2,25,280.070671949405,2,0.519854110198139
Stesso monumento?,1 = Stesso monumento \n2 = Monumento diverso,Monuments/13 Duomo di Trento copy.jpg,16,13,2,25,282.586408740384,1,0.520201853862091
Stesso monumento?,1 = Stesso monumento \n2 = Monumento diverso,Monuments/16 Golden Gate copy.jpg,16,14,2,25,285.101971873397,2,0.519716381464605
Stesso monumento?,1 = Stesso monumento \n2 = Monumento diverso,Monuments/16 Golden Gate copy.jpg,16,15,2,25,287.617688988845,1,0.520085939308046
Stesso monumento?,1 = Stesso monumento \n2 = Monumento diverso,Monuments/29 Ponte dei Sospiri copy.jpg,16,16,2,25,290.1333132871,2,0.519546573057596
Quanto familiare?,1 = Moltissimo\n2 = Molto\n3 = Poco\n4 = Pochissimo,People/Paolo Bonolis/selected/im_22.jpg,5,9,2,26,305.010689375084,2,1.16484589566244
Quanto familiare?,1 = Moltissimo\n2 = Molto\n3 = Poco\n4 = Pochissimo,People/Matteo Renzi/selected/im_19.jpg,5,10,2,26,307.526339764809,3,1.29028298121921
Quanto familiare?,1 = Moltissimo\n2 = Molto\n3 = Poco\n4 = Pochissimo,People/Daniel Radcliffe/selected/im_12.jpg,5,11,2,26,310.041989299076,2,1.31573242814557
Quanto familiare?,1 = Moltissimo\n2 = Molto\n3 = Poco\n4 = Pochissimo,People/Britney Spears/selected/im_31.jpg,5,12,2,26,312.557628995577,3,0.980076811571053
Quanto familiare?,1 = Moltissimo\n2 = Molto\n3 = Poco\n4 = Pochissimo,People/Fiorello/selected/im_35.jpg,5,13,2,26,315.073294783546,2,0.884583321392711
Quanto familiare?,1 = Moltissimo\n2 = Molto\n3 = Poco\n4 = Pochissimo,People/Justin Bieber/selected/im_38.jpg,5,14,2,26,317.58902601405,3,0.9698951507944
Quanto familiare?,1 = Moltissimo\n2 = Molto\n3 = Poco\n4 = Pochissimo,People/Matteo Salvini/selected/im_14.jpg,5,15,2,26,320.104649884577,4,0.795360765874648
Quanto familiare?,1 = Moltissimo\n2 = Molto\n3 = Poco\n4 = Pochissimo,People/Robin Williams/selected/im_26.jpg,5,16,2,26,322.620263489609,1,1.02184497476264
Stesso volto?,1 = Stesso volto\n2 = Volto diverso,People/George Bush/selected/im_05.jpg,12,9,2,27,337.514409547937,,
Stesso volto?,1 = Stesso volto\n2 = Volto diverso,People/George Bush/selected/im_05.jpg,12,10,2,27,340.030012459745,1,0.519576086357119
Stesso volto?,1 = Stesso volto\n2 = Volto diverso,People/George Clooney/selected/im_16.jpg,12,11,2,27,342.545607244701,2,0.520147960010945
Stesso volto?,1 = Stesso volto\n2 = Volto diverso,People/Paris Hilton/selected/im_01.jpg,12,12,2,27,345.061250790764,2,0.634575729203789
Stesso volto?,1 = Stesso volto\n2 = Volto diverso,People/Angelina Jolie/selected/im_55.jpg,12,13,2,27,347.576935826537,2,0.698982304424135
Stesso volto?,1 = Stesso volto\n2 = Volto diverso,People/Matteo Renzi/selected/im_72.jpg,12,14,2,27,350.092607174982,2,0.519341690871443
Stesso volto?,1 = Stesso volto\n2 = Volto diverso,People/Matteo Salvini/selected/im_31.jpg,12,15,2,27,352.608308464458,2,0.519729213332539
Stesso volto?,1 = Stesso volto\n2 = Volto diverso,People/Giorgio Napolitano/selected/im_43.jpg,12,16,2,27,355.12393062407,2,0.520196293386107
Nome comune?,1 = Moltissimo\n2 = Molto\n3 = Poco\n4 = Pochissimo,People/Rihanna/selected/im_16 (1).jpg,6,9,2,28,370.017979160188,3,1.90780002301108
Nome comune?,1 = Moltissimo\n2 = Molto\n3 = Poco\n4 = Pochissimo,People/Johnny Depp/selected/im_09.jpg,6,10,2,28,372.533584210641,2,1.49330240567542
Nome comune?,1 = Moltissimo\n2 = Molto\n3 = Poco\n4 = Pochissimo,People/Paris Hilton/selected/im_15.jpg,6,11,2,28,375.049235028095,3,1.09769714991307
Nome comune?,1 = Moltissimo\n2 = Molto\n3 = Poco\n4 = Pochissimo,People/Michelle Hunziker/selected/im_24.jpg,6,12,2,28,377.564899960606,2,1.54117426149423
Nome comune?,1 = Moltissimo\n2 = Molto\n3 = Poco\n4 = Pochissimo,People/Paolo Bonolis/selected/im_11.jpg,6,13,2,28,380.080525969779,2,1.0265568372688
Nome comune?,1 = Moltissimo\n2 = Molto\n3 = Poco\n4 = Pochissimo,People/Roberto Maroni/selected/im_37.jpg,6,14,2,28,382.596308100032,3,1.21191704281955
Nome comune?,1 = Moltissimo\n2 = Molto\n3 = Poco\n4 = Pochissimo,People/Hillary Clinton/selected/im_09.jpg,6,15,2,28,385.111888769932,3,1.53746029071044
Nome comune?,1 = Moltissimo\n2 = Molto\n3 = Poco\n4 = Pochissimo,People/Michael Jackson/selected/im_28.jpg,6,16,2,28,387.627513923648,1,1.52089520254776
Quanto affidabile?,1 = Moltissimo\n2 = Molto\n3 = Poco\n4 = Pochissimo,People/Michael Jackson/selected/im_08.jpg,4,9,2,29,402.52166254835,2,0.987118941593508
Quanto affidabile?,1 = Moltissimo\n2 = Molto\n3 = Poco\n4 = Pochissimo,People/Romano Prodi/selected/im_05.jpg,4,10,2,29,405.037194457145,4,1.23280689875537
Quanto affidabile?,1 = Moltissimo\n2 = Molto\n3 = Poco\n4 = Pochissimo,People/Angelino Alfano/selected/im_65.jpg,4,11,2,29,407.552877354274,4,0.75706704523509
Quanto affidabile?,1 = Moltissimo\n2 = Molto\n3 = Poco\n4 = Pochissimo,People/Roberto Maroni/selected/im_17.jpg,4,12,2,29,410.068566667336,4,0.720567219961595
Quanto affidabile?,1 = Moltissimo\n2 = Molto\n3 = Poco\n4 = Pochissimo,People/Giorgia Meloni/selected/im_30.jpg,4,13,2,29,412.584151186798,4,0.806089492025421
Quanto affidabile?,1 = Moltissimo\n2 = Molto\n3 = Poco\n4 = Pochissimo,People/Hillary Clinton/selected/im_18.jpg,4,14,2,29,415.099902948294,3,1.53044467988548
Quanto affidabile?,1 = Moltissimo\n2 = Molto\n3 = Poco\n4 = Pochissimo,People/Rihanna/selected/im_04.jpg,4,15,2,29,417.615516553326,2,1.03490011886606
Quanto affidabile?,1 = Moltissimo\n2 = Molto\n3 = Poco\n4 = Pochissimo,People/George Clooney/selected/im_16.jpg,4,16,2,29,420.131197311808,2,0.800233882207976
Quanto attraente?,1 = Moltissimo\n2 = Molto\n3 = Poco\n4 = Pochissimo,People/Michelle Hunziker/selected/im_11.jpg,2,9,2,30,435.025170567626,2,0.992814153038125
Quanto attraente?,1 = Moltissimo\n2 = Molto\n3 = Poco\n4 = Pochissimo,People/Giorgia Meloni/selected/im_67.jpg,2,10,2,30,437.540830795118,4,0.977260216199284
Quanto attraente?,1 = Moltissimo\n2 = Molto\n3 = Poco\n4 = Pochissimo,People/Justin Bieber/selected/im_08.jpg,2,11,2,30,440.056494016713,2,1.08259018986428
Quanto attraente?,1 = Moltissimo\n2 = Molto\n3 = Poco\n4 = Pochissimo,People/Julia Roberts/selected/im_100.jpg,2,12,2,30,442.572118314971,2,0.727184187371677
Quanto attraente?,1 = Moltissimo\n2 = Molto\n3 = Poco\n4 = Pochissimo,People/Laura Pausini/selected/im_17.jpg,2,13,2,30,445.087896167934,3,1.27046030910242
Quanto attraente?,1 = Moltissimo\n2 = Molto\n3 = Poco\n4 = Pochissimo,People/Michelle Obama/selected/im_32.jpg,2,14,2,30,447.603453740468,3,0.914971754915314
Quanto attraente?,1 = Moltissimo\n2 = Molto\n3 = Poco\n4 = Pochissimo,People/Daniel Radcliffe/selected/im_56.jpg,2,15,2,30,450.119118245249,3,1.12043393960994
Quanto attraente?,1 = Moltissimo\n2 = Molto\n3 = Poco\n4 = Pochissimo,People/Matt Damon/selected/im_10.jpg,2,16,2,30,452.634782322302,3,0.884809590024815
Stesso volto?,1 = Stesso volto\n2 = Volto diverso,People/Matt Damon/selected/im_36.jpg,11,9,2,31,467.512237112418,,
Stesso volto?,1 = Stesso volto\n2 = Volto diverso,People/Filippo Inzaghi/selected/im_14.jpg,11,10,2,31,470.027871248441,2,0.583182380645667
Stesso volto?,1 = Stesso volto\n2 = Volto diverso,People/Bill Gates/selected/im_14 (1).jpg,11,11,2,31,472.543522493626,2,0.519650083471788
Stesso volto?,1 = Stesso volto\n2 = Volto diverso,People/Fiorello/selected/im_69.jpg,11,12,2,31,475.059113856751,2,0.62427002701952
Stesso volto?,1 = Stesso volto\n2 = Volto diverso,People/Silvio Berlusconi/selected/im_08.jpg,11,13,2,31,477.574759969186,2,0.519711676444786
Stesso volto?,1 = Stesso volto\n2 = Volto diverso,People/Julia Roberts/selected/im_13.jpg,11,14,2,31,480.090453987268,2,0.520001248969493
Stesso volto?,1 = Stesso volto\n2 = Volto diverso,People/Julia Roberts/selected/im_13.jpg,11,15,2,31,482.6060808519,1,0.56045200688277
Stesso volto?,1 = Stesso volto\n2 = Volto diverso,People/Bill Clinton/selected/im_27.jpg,11,16,2,31,485.121762038112,2,0.519842989244353
Che lavoro fa?,1 = Presentatore TV/attore\n2 = Cantante/Musicista\n3 = Politico/Sportivo\n4 = Altro/Non so,People/Cameron Diaz/selected/im_10.jpg,8,9,2,32,500.015830249764,2,1.26844741649438
Che lavoro fa?,1 = Presentatore TV/attore\n2 = Cantante/Musicista\n3 = Politico/Sportivo\n4 = Altro/Non so,People/Bill Clinton/selected/im_18.jpg,8,10,2,32,502.531455403479,3,1.29392894309603
Che lavoro fa?,1 = Presentatore TV/attore\n2 = Cantante/Musicista\n3 = Politico/Sportivo\n4 = Altro/Non so,People/Silvio Berlusconi/selected/Silvio Berlusconi_2.jpg,8,11,2,32,505.047045911146,3,1.39844837033161
Che lavoro fa?,1 = Presentatore TV/attore\n2 = Cantante/Musicista\n3 = Politico/Sportivo\n4 = Altro/Non so,People/Giorgia Meloni/selected/im_24.jpg,8,12,2,32,507.562707849554,3,1.06282012841257
Che lavoro fa?,1 = Presentatore TV/attore\n2 = Cantante/Musicista\n3 = Politico/Sportivo\n4 = Altro/Non so,People/Michelle Obama/selected/im_08.jpg,8,13,2,32,510.078466454712,3,1.00612764544894
Che lavoro fa?,1 = Presentatore TV/attore\n2 = Cantante/Musicista\n3 = Politico/Sportivo\n4 = Altro/Non so,People/Roberto Maroni/selected/im_36.jpg,8,14,2,32,512.594054396006,3,1.11062483078058
Che lavoro fa?,1 = Presentatore TV/attore\n2 = Cantante/Musicista\n3 = Politico/Sportivo\n4 = Altro/Non so,People/Donald Trump/selected/im_15.jpg,8,15,2,32,515.109742425882,3,0.935001020134223
Che lavoro fa?,1 = Presentatore TV/attore\n2 = Cantante/Musicista\n3 = Politico/Sportivo\n4 = Altro/Non so,People/Mike Tyson/selected/im_11.jpg,8,16,2,32,517.625342343586,4,2.04157354650124
Stesso monumento?,1 = Stesso monumento \n2 = Monumento diverso,Monuments/26 Piazza San Marco  copy.jpg,16,17,3,33,12.511612200371,,
Stesso monumento?,1 = Stesso monumento \n2 = Monumento diverso,Monuments/23 Palazzo vecchio copy.jpg,16,18,3,33,15.0272159676369,2,0.646505090615392
Stesso monumento?,1 = Stesso monumento \n2 = Monumento diverso,Monuments/23 Palazzo vecchio copy.jpg,16,19,3,33,17.5428505313903,1,0.519887473057679
Stesso monumento?,1 = Stesso monumento \n2 = Monumento diverso,Monuments/34 San Pietro copy.jpg,16,20,3,33,20.0585034874894,2,0.628415148621571
Stesso monumento?,1 = Stesso monumento \n2 = Monumento diverso,Monuments/34 San Pietro copy.jpg,16,21,3,33,22.5741461780926,1,0.519772841689701
Stesso monumento?,1 = Stesso monumento \n2 = Monumento diverso,Monuments/44 Versailles copy.jpg,16,22,3,33,25.0899176151215,2,0.520082517476112
Stesso monumento?,1 = Stesso monumento \n2 = Monumento diverso,Monuments/44 Versailles copy.jpg,16,23,3,33,27.6054696271785,1,0.686677824689468
Stesso monumento?,1 = Stesso monumento \n2 = Monumento diverso,Monuments/21 Muraglia Cinese copy.jpg,16,24,3,33,30.1212479078713,2,0.520011514465295
Nome comune?,1 = Moltissimo\n2 = Molto\n3 = Poco\n4 = Pochissimo,People/Angelino Alfano/selected/im_68.jpg,6,17,3,34,45.0151257801244,4,1.8877600645701
Nome comune?,1 = Moltissimo\n2 = Molto\n3 = Poco\n4 = Pochissimo,People/Julia Roberts/selected/im_05.jpg,6,18,3,34,47.5308116713568,2,1.31211811821413
Nome comune?,1 = Moltissimo\n2 = Molto\n3 = Poco\n4 = Pochissimo,People/Robin Williams/selected/im_24.jpg,6,19,3,34,50.0464872970915,2,1.73961484715619
Nome comune?,1 = Moltissimo\n2 = Molto\n3 = Poco\n4 = Pochissimo,People/Brad Pitt/selected/im_13.jpg,6,20,3,34,52.5622754155502,2,1.3028184346058
Nome comune?,1 = Moltissimo\n2 = Molto\n3 = Poco\n4 = Pochissimo,People/Britney Spears/selected/im_13.jpg,6,21,3,34,55.0778637845724,2,1.48833433350774
Nome comune?,1 = Moltissimo\n2 = Molto\n3 = Poco\n4 = Pochissimo,People/Justin Bieber/selected/im_05.jpg,6,22,3,34,57.5934607081745,2,1.45182082090651
Nome comune?,1 = Moltissimo\n2 = Molto\n3 = Poco\n4 = Pochissimo,People/Daniel Radcliffe/selected/im_05.jpg,6,23,3,34,60.1091731186025,4,1.83824273534447
Nome comune?,1 = Moltissimo\n2 = Molto\n3 = Poco\n4 = Pochissimo,People/Giorgia Meloni/selected/im_17.jpg,6,24,3,34,62.6247572103348,2,1.4826904495385
Quanto familiare?,1 = Moltissimo\n2 = Molto\n3 = Poco\n4 = Pochissimo,People/Rihanna/selected/im_28 (1).jpg,5,17,3,35,77.5187574130796,2,0.750065977195845
Quanto familiare?,1 = Moltissimo\n2 = Molto\n3 = Poco\n4 = Pochissimo,People/Romano Prodi/selected/im_30.jpg,5,18,3,35,80.0345057527411,4,0.875473977182992
Quanto familiare?,1 = Moltissimo\n2 = Molto\n3 = Poco\n4 = Pochissimo,People/Johnny Depp/selected/im_16.jpg,5,19,3,35,82.5501223518768,2,0.938962645999709
Quanto familiare?,1 = Moltissimo\n2 = Molto\n3 = Poco\n4 = Pochissimo,People/Donald Trump/selected/im_58.jpg,5,20,3,35,85.0657975498834,4,0.763370915026826
Quanto familiare?,1 = Moltissimo\n2 = Molto\n3 = Poco\n4 = Pochissimo,People/Tom Cruise/selected/im_05.jpg,5,21,3,35,87.5814453732346,3,1.36981063154599
Quanto familiare?,1 = Moltissimo\n2 = Molto\n3 = Poco\n4 = Pochissimo,People/Giorgia Meloni/selected/im_17.jpg,5,22,3,35,90.0971304090071,4,0.835229812368198
Quanto familiare?,1 = Moltissimo\n2 = Molto\n3 = Poco\n4 = Pochissimo,People/Michael Jackson/selected/im_50.jpg,5,23,3,35,92.6126961083937,2,0.880717934547647
Quanto familiare?,1 = Moltissimo\n2 = Molto\n3 = Poco\n4 = Pochissimo,People/Barack Obama/selected/im_17.jpg,5,24,3,35,95.1284042415318,2,0.90613701271468
Quanti fatti ricordi?,1 = Moltissimo\n2 = Molto\n3 = Poco\n4 = Pochissimo,People/Giorgia Meloni/selected/im_49.jpg,7,17,3,36,110.022498116923,3,1.39257351271226
Quanti fatti ricordi?,1 = Moltissimo\n2 = Molto\n3 = Poco\n4 = Pochissimo,People/Robin Williams/selected/im_85.jpg,7,18,3,36,112.538020187952,2,1.03711233318063
Quanti fatti ricordi?,1 = Moltissimo\n2 = Molto\n3 = Poco\n4 = Pochissimo,People/Rihanna/selected/im_07.jpg,7,19,3,36,115.053680843173,2,0.841526410767983
Quanti fatti ricordi?,1 = Moltissimo\n2 = Molto\n3 = Poco\n4 = Pochissimo,People/Bill Clinton/selected/im_16.jpg,7,20,3,36,117.569380849462,3,0.965944645880882
Quanti fatti ricordi?,1 = Moltissimo\n2 = Molto\n3 = Poco\n4 = Pochissimo,People/Matt Damon/selected/im_21.jpg,7,21,3,36,120.085020973691,3,0.972349031984777
Quanti fatti ricordi?,1 = Moltissimo\n2 = Molto\n3 = Poco\n4 = Pochissimo,People/Daniel Radcliffe/selected/im_18.jpg,7,22,3,36,122.600652115612,2,0.898829262992876
Quanti fatti ricordi?,1 = Moltissimo\n2 = Molto\n3 = Poco\n4 = Pochissimo,People/Angelino Alfano/selected/im_14.jpg,7,23,3,36,125.116312770833,3,0.887141996185164
Quanti fatti ricordi?,1 = Moltissimo\n2 = Molto\n3 = Poco\n4 = Pochissimo,People/Tom Cruise/selected/im_01.jpg,7,24,3,36,127.632260432203,2,1.21242775122664
Che lavoro fa?,1 = Presentatore TV/attore\n2 = Cantante/Musicista\n3 = Politico/Sportivo\n4 = Altro/Non so,People/Tom Cruise/selected/im_21.jpg,8,17,3,37,142.525975767443,1,0.73813576032444
Che lavoro fa?,1 = Presentatore TV/attore\n2 = Cantante/Musicista\n3 = Politico/Sportivo\n4 = Altro/Non so,People/Matteo Renzi/selected/im_15.jpg,8,18,3,37,145.041640272224,3,0.902615092247288
Che lavoro fa?,1 = Presentatore TV/attore\n2 = Cantante/Musicista\n3 = Politico/Sportivo\n4 = Altro/Non so,People/Sandra Bullock/selected/im_09.jpg,8,19,3,37,147.557300927445,1,1.38708190026409
Che lavoro fa?,1 = Presentatore TV/attore\n2 = Cantante/Musicista\n3 = Politico/Sportivo\n4 = Altro/Non so,People/Johnny Depp/selected/im_68.jpg,8,20,3,37,150.073009916041,1,0.731402022900511
Che lavoro fa?,1 = Presentatore TV/attore\n2 = Cantante/Musicista\n3 = Politico/Sportivo\n4 = Altro/Non so,People/Sabrina Ferilli/selected/im_13.jpg,8,21,3,37,152.588672709908,1,0.935833808469397
Che lavoro fa?,1 = Presentatore TV/attore\n2 = Cantante/Musicista\n3 = Politico/Sportivo\n4 = Altro/Non so,People/Filippo Inzaghi/selected/im_57.jpg,8,22,3,37,155.104318822343,3,1.02129448755659
Che lavoro fa?,1 = Presentatore TV/attore\n2 = Cantante/Musicista\n3 = Politico/Sportivo\n4 = Altro/Non so,People/Laura Pausini/selected/im_15.jpg,8,23,3,37,157.619940554227,2,1.44580566817967
Che lavoro fa?,1 = Presentatore TV/attore\n2 = Cantante/Musicista\n3 = Politico/Sportivo\n4 = Altro/Non so,People/Arnold Schwarzenegger/selected/im_11.jpg,8,24,3,37,160.135703436676,1,1.29009691911051
Stesso volto?,1 = Stesso volto\n2 = Volto diverso,People/Julia Roberts/selected/im_09.jpg,13,17,3,38,175.012972592411,,
Stesso volto?,1 = Stesso volto\n2 = Volto diverso,People/Angelino Alfano/selected/im_65.jpg,13,18,3,38,177.52862084349,2,0.528656344995397
Stesso volto?,1 = Stesso volto\n2 = Volto diverso,People/Arnold Schwarzenegger/selected/im_45.jpg,13,19,3,38,180.044255834973,2,0.520105187111767
Stesso volto?,1 = Stesso volto\n2 = Volto diverso,People/Bill Clinton/selected/im_18.jpg,13,20,3,38,182.559920339754,2,0.546528145208867
Stesso volto?,1 = Stesso volto\n2 = Volto diverso,People/Hillary Clinton/selected/im_18.jpg,13,21,3,38,185.075660552568,2,0.551872618887501
Stesso volto?,1 = Stesso volto\n2 = Volto diverso,People/Michelle Obama/selected/im_11.jpg,13,22,3,38,187.591287417197,2,0.519337413581525
Stesso volto?,1 = Stesso volto\n2 = Volto diverso,People/Michelle Obama/selected/im_11.jpg,13,23,3,38,190.106888618089,1,0.531878427445918
Stesso volto?,1 = Stesso volto\n2 = Volto diverso,People/Johnny Depp/selected/im_27.jpg,13,24,3,38,192.62253686917,2,0.520302797904151
Quanto amichevole?,1 = Moltissimo\n2 = Molto\n3 = Poco\n4 = Pochissimo,People/Roberto Maroni/selected/im_10.jpg,3,17,3,39,207.516688060245,4,0.934685783871828
Quanto amichevole?,1 = Moltissimo\n2 = Molto\n3 = Poco\n4 = Pochissimo,People/Paolo Bonolis/selected/im_03.jpg,3,18,3,39,210.032267874689,2,1.03809268801524
Quanto amichevole?,1 = Moltissimo\n2 = Molto\n3 = Poco\n4 = Pochissimo,People/Fiorello/selected/im_69.jpg,3,19,3,39,212.547884046095,2,0.847701106406021
Quanto amichevole?,1 = Moltissimo\n2 = Molto\n3 = Poco\n4 = Pochissimo,People/Brad Pitt/selected/im_12.jpg,3,20,3,39,215.063584052383,2,0.715049943775739
Quanto amichevole?,1 = Moltissimo\n2 = Molto\n3 = Poco\n4 = Pochissimo,People/Michael Jackson/selected/im_15.jpg,3,21,3,39,217.579181831443,2,0.840554610513209
Quanto amichevole?,1 = Moltissimo\n2 = Molto\n3 = Poco\n4 = Pochissimo,People/Romano Prodi/selected/im_17.jpg,3,22,3,39,220.094944286162,4,0.786901569723341
Quanto amichevole?,1 = Moltissimo\n2 = Molto\n3 = Poco\n4 = Pochissimo,People/Julia Roberts/selected/im_19.jpg,3,23,3,39,222.610495015033,2,0.611350045275685
Quanto amichevole?,1 = Moltissimo\n2 = Molto\n3 = Poco\n4 = Pochissimo,People/Sandra Bullock/selected/im_03.jpg,3,24,3,39,225.12615310388,3,1.2559230840634
Quanto attraente?,1 = Moltissimo\n2 = Molto\n3 = Poco\n4 = Pochissimo,People/Silvio Berlusconi/selected/Silvio Berlusconi_6.jpg,2,17,3,40,240.020257244767,4,1.02533139372463
Quanto attraente?,1 = Moltissimo\n2 = Molto\n3 = Poco\n4 = Pochissimo,People/Mike Tyson/selected/im_04.jpg,2,18,3,40,242.535823799612,4,0.748768247452972
Quanto attraente?,1 = Moltissimo\n2 = Molto\n3 = Poco\n4 = Pochissimo,People/Bill Clinton/selected/im_18.jpg,2,19,3,40,245.051516106778,4,0.633171494941053
Quanto attraente?,1 = Moltissimo\n2 = Molto\n3 = Poco\n4 = Pochissimo,People/Barack Obama/selected/im_16.jpg,2,20,3,40,247.567152809175,3,1.71970406286891
Quanto attraente?,1 = Moltissimo\n2 = Molto\n3 = Poco\n4 = Pochissimo,People/George Clooney/selected/im_17.jpg,2,21,3,40,250.082793788863,3,0.88410127082534
Quanto attraente?,1 = Moltissimo\n2 = Molto\n3 = Poco\n4 = Pochissimo,People/Jim Carrey/selected/im_16.jpg,2,22,3,40,252.598445889504,3,0.994535334479224
Quanto attraente?,1 = Moltissimo\n2 = Molto\n3 = Poco\n4 = Pochissimo,People/Romano Prodi/selected/im_13.jpg,2,23,3,40,255.114174981363,4,0.798926742429103
Quanto attraente?,1 = Moltissimo\n2 = Molto\n3 = Poco\n4 = Pochissimo,People/Giorgio Napolitano/selected/im_xx.jpg,2,24,3,40,257.629830503836,4,0.78330779078351
Stesso volto?,1 = Stesso volto\n2 = Volto diverso,People/Justin Bieber/selected/im_06.jpg,11,17,3,41,272.52378793368,,
Stesso volto?,1 = Stesso volto\n2 = Volto diverso,People/Justin Bieber/selected/im_06.jpg,11,18,3,41,275.039468692165,1,0.520175334666419
Stesso volto?,1 = Stesso volto\n2 = Volto diverso,People/George Clooney/selected/im_08 (1).jpg,11,19,3,41,277.555107533206,2,0.519626986106232
Stesso volto?,1 = Stesso volto\n2 = Volto diverso,People/George Clooney/selected/im_08 (1).jpg,11,20,3,41,280.070754073371,2,0.520066691502507
Stesso volto?,1 = Stesso volto\n2 = Volto diverso,People/George Clooney/selected/im_08 (1).jpg,11,21,3,41,282.586519094464,1,0.599486554125178
Stesso volto?,1 = Stesso volto\n2 = Volto diverso,People/Michael Jackson/selected/im_15.jpg,11,22,3,41,285.102063835129,2,0.884095710347538
Stesso volto?,1 = Stesso volto\n2 = Volto diverso,People/Michael Jackson/selected/im_15.jpg,11,23,3,41,287.617784800137,1,0.630302716634105
Stesso volto?,1 = Stesso volto\n2 = Volto diverso,People/Romano Prodi/selected/im_07.jpg,11,24,3,41,290.133478390491,2,0.51979422813929
Memoria remota?,1 = Moltissimo\n2 = Molto\n3 = Poco\n4 = Pochissimo,People/Robin Williams/selected/im_14.jpg,1,17,3,42,305.010856189389,2,1.34795838539139
Memoria remota?,1 = Moltissimo\n2 = Molto\n3 = Poco\n4 = Pochissimo,People/Roberto Maroni/selected/im_16.jpg,1,18,3,42,307.526422316503,4,0.79641597328191
Memoria remota?,1 = Moltissimo\n2 = Molto\n3 = Poco\n4 = Pochissimo,People/Daniel Radcliffe/selected/im_07.jpg,1,19,3,42,310.042050464323,2,1.28097046574112
Memoria remota?,1 = Moltissimo\n2 = Molto\n3 = Poco\n4 = Pochissimo,People/Justin Bieber/selected/im_31.jpg,1,20,3,42,312.557711975001,2,1.08440504395185
Memoria remota?,1 = Moltissimo\n2 = Molto\n3 = Poco\n4 = Pochissimo,People/Matt Damon/selected/im_19.jpg,1,21,3,42,315.073458176019,3,1.15173386360402
Memoria remota?,1 = Moltissimo\n2 = Molto\n3 = Poco\n4 = Pochissimo,People/George Bush/selected/im_15.jpg,1,22,3,42,317.589016176284,3,0.895202548921588
Memoria remota?,1 = Moltissimo\n2 = Molto\n3 = Poco\n4 = Pochissimo,People/Romano Prodi/selected/im_07.jpg,1,23,3,42,320.104717893486,3,0.960606160409952
Memoria remota?,1 = Moltissimo\n2 = Molto\n3 = Poco\n4 = Pochissimo,People/Tom Cruise/selected/im_17.jpg,1,24,3,42,322.620381970539,2,1.60394648425972
Quanto affidabile?,1 = Moltissimo\n2 = Molto\n3 = Poco\n4 = Pochissimo,People/Donald Trump/selected/im_64.jpg,4,17,3,43,337.514401421087,4,0.932482124137096
Quanto affidabile?,1 = Moltissimo\n2 = Molto\n3 = Poco\n4 = Pochissimo,People/Paris Hilton/selected/im_48.jpg,4,18,3,43,340.030073624992,4,0.85692807608757
Quanto affidabile?,1 = Moltissimo\n2 = Molto\n3 = Poco\n4 = Pochissimo,People/Michelle Obama/selected/im_16.jpg,4,19,3,43,342.545792023626,2,1.06130767871946
Quanto affidabile?,1 = Moltissimo\n2 = Molto\n3 = Poco\n4 = Pochissimo,People/Justin Bieber/selected/im_06.jpg,4,20,3,43,345.061321366047,3,0.925833932509704
Quanto affidabile?,1 = Moltissimo\n2 = Molto\n3 = Poco\n4 = Pochissimo,People/Barack Obama/selected/im_03.jpg,4,21,3,43,347.577048746991,2,0.893204199101092
Quanto affidabile?,1 = Moltissimo\n2 = Molto\n3 = Poco\n4 = Pochissimo,People/Tom Cruise/selected/im_06.jpg,4,22,3,43,350.092749181007,3,0.698493410192896
Quanto affidabile?,1 = Moltissimo\n2 = Molto\n3 = Poco\n4 = Pochissimo,People/Bill Gates/selected/im_16.jpg,4,23,3,43,352.608290072112,3,0.843090187940106
Quanto affidabile?,1 = Moltissimo\n2 = Molto\n3 = Poco\n4 = Pochissimo,People/George Bush/selected/im_03.jpg,4,24,3,43,355.123959709641,3,0.828459717980877
Stesso volto?,1 = Stesso volto\n2 = Volto diverso,People/Justin Bieber/selected/im_32.jpg,12,17,3,44,370.01803775906,,
Stesso volto?,1 = Stesso volto\n2 = Volto diverso,People/Arnold Schwarzenegger/selected/im_26.jpg,12,18,3,44,372.5336440927,2,0.629380105212476
Stesso volto?,1 = Stesso volto\n2 = Volto diverso,People/Laura Pausini/selected/im_03.jpg,12,19,3,44,375.049290205136,2,0.519819464148895
Stesso volto?,1 = Stesso volto\n2 = Volto diverso,People/Laura Pausini/selected/im_03.jpg,12,20,3,44,377.564975668638,1,0.520217679835696
Stesso volto?,1 = Stesso volto\n2 = Volto diverso,People/Brad Pitt/selected/im_15.jpg,12,21,3,44,380.080705188226,2,0.542625118214346
Stesso volto?,1 = Stesso volto\n2 = Volto diverso,People/Mike Tyson/selected/im_11.jpg,12,22,3,44,382.596281153106,2,0.520093638429898
Stesso volto?,1 = Stesso volto\n2 = Volto diverso,People/Mike Tyson/selected/im_11.jpg,12,23,3,44,385.111917427776,1,0.710542107994115
Stesso volto?,1 = Stesso volto\n2 = Volto diverso,People/Sandra Bullock/selected/im_02.jpg,12,24,3,44,387.627642670073,2,0.596023660256833
Volto distintivo?,1 = Moltissimo\n2 = Molto\n3 = Poco\n4 = Pochissimo,People/Johnny Depp/selected/im_17.jpg,9,17,3,45,402.521621058639,1,0.88447767233265
Volto distintivo?,1 = Moltissimo\n2 = Molto\n3 = Poco\n4 = Pochissimo,People/Fiorello/selected/im_35.jpg,9,18,3,45,405.037256905578,2,0.968024691939718
Volto distintivo?,1 = Moltissimo\n2 = Molto\n3 = Poco\n4 = Pochissimo,People/Hillary Clinton/selected/im_13.jpg,9,19,3,45,407.552899596181,3,1.25236095706896
Volto distintivo?,1 = Moltissimo\n2 = Molto\n3 = Poco\n4 = Pochissimo,People/Romano Prodi/selected/im_05.jpg,9,20,3,45,410.068587626058,3,0.917860636485784
Volto distintivo?,1 = Moltissimo\n2 = Molto\n3 = Poco\n4 = Pochissimo,People/Michelle Hunziker/selected/im_03.jpg,9,21,3,45,412.584233310765,3,1.22128815716678
Volto distintivo?,1 = Moltissimo\n2 = Molto\n3 = Poco\n4 = Pochissimo,People/Sabrina Ferilli/selected/im_15.jpg,9,22,3,45,415.099893965986,2,1.30573896812166
Volto distintivo?,1 = Moltissimo\n2 = Molto\n3 = Poco\n4 = Pochissimo,People/Daniel Radcliffe/selected/im_08.jpg,9,23,3,45,417.615518264241,2,1.35209324149582
Volto distintivo?,1 = Moltissimo\n2 = Molto\n3 = Poco\n4 = Pochissimo,People/Brad Pitt/selected/im_16.jpg,9,24,3,45,420.13117592536,2,1.23851536979964
Sicuramente conoscere\n(nome e cognome)?,1 = Moltissimo\n2 = Molto\n3 = Poco\n4 = Pochissimo,People/Matteo Salvini/selected/im_77.jpg,10,17,3,46,435.025318989585,1,1.20687925082348
Sicuramente conoscere\n(nome e cognome)?,1 = Moltissimo\n2 = Molto\n3 = Poco\n4 = Pochissimo,People/Barack Obama/selected/im_05.jpg,10,18,3,46,437.540850898382,1,0.852437777195519
Sicuramente conoscere\n(nome e cognome)?,1 = Moltissimo\n2 = Molto\n3 = Poco\n4 = Pochissimo,People/Michelle Obama/selected/im_11.jpg,10,19,3,46,440.056526951847,1,0.795838111422199
Sicuramente conoscere\n(nome e cognome)?,1 = Moltissimo\n2 = Molto\n3 = Poco\n4 = Pochissimo,People/Roberto Maroni/selected/im_25.jpg,10,20,3,46,442.572162371056,4,1.36131037341147
Sicuramente conoscere\n(nome e cognome)?,1 = Moltissimo\n2 = Molto\n3 = Poco\n4 = Pochissimo,People/Filippo Inzaghi/selected/im_03.jpg,10,21,3,46,445.08788119742,3,1.24677909380443
Sicuramente conoscere\n(nome e cognome)?,1 = Moltissimo\n2 = Molto\n3 = Poco\n4 = Pochissimo,People/Cameron Diaz/selected/im_100.jpg,10,22,3,46,447.603493091536,1,1.09423725014676
Sicuramente conoscere\n(nome e cognome)?,1 = Moltissimo\n2 = Molto\n3 = Poco\n4 = Pochissimo,People/Romano Prodi/selected/im_17.jpg,10,23,3,46,450.119142625803,1,0.937679459042556
Sicuramente conoscere\n(nome e cognome)?,1 = Moltissimo\n2 = Molto\n3 = Poco\n4 = Pochissimo,People/Brad Pitt/selected/im_07.jpg,10,24,3,46,452.634845626193,1,0.962028787016607
Stesso monumento?,1 = Stesso monumento \n2 = Monumento diverso,Monuments/25 Piazza di Spagna copy.jpg,15,17,3,47,467.52885310033,,
Stesso monumento?,1 = Stesso monumento \n2 = Monumento diverso,Monuments/29 Ponte dei Sospiri copy.jpg,15,18,3,47,470.044464566718,2,0.566922690979482
Stesso monumento?,1 = Stesso monumento \n2 = Monumento diverso,Monuments/18 Louvre copy.jpg,15,19,3,47,472.560148747032,2,0.520337871679658
Stesso monumento?,1 = Stesso monumento \n2 = Monumento diverso,Monuments/32 Ponte vecchio copy.jpg,15,20,3,47,475.075782455327,2,0.519785673561273
Stesso monumento?,1 = Stesso monumento \n2 = Monumento diverso,Monuments/35 Santa Maria del Fiore copy.jpg,15,21,3,47,477.591483744802,2,0.520173196020551
Stesso monumento?,1 = Stesso monumento \n2 = Monumento diverso,Monuments/3 Ara Pacis copy.jpg,15,22,3,47,480.107099916209,2,0.52064540882202
Stesso monumento?,1 = Stesso monumento \n2 = Monumento diverso,Monuments/12 Duomo di San Marco copy.jpg,15,23,3,47,482.624744806195,2,0.518085878569764
Stesso monumento?,1 = Stesso monumento \n2 = Monumento diverso,Monuments/12 Duomo di San Marco copy.jpg,15,24,3,47,485.138425503941,1,0.519492251476549
Stesso monumento?,1 = Stesso monumento \n2 = Monumento diverso,Monuments/23 Palazzo vecchio copy.jpg,14,17,3,48,500.015765234959,,
Stesso monumento?,1 = Stesso monumento \n2 = Monumento diverso,Monuments/23 Palazzo vecchio copy.jpg,14,18,3,48,502.531428028824,1,0.520089361139981
Stesso monumento?,1 = Stesso monumento \n2 = Monumento diverso,Monuments/33 Porta di Brandeburgo copy.jpg,14,19,3,48,505.047116914158,2,0.519485835540763
Stesso monumento?,1 = Stesso monumento \n2 = Monumento diverso,Monuments/29 Ponte dei Sospiri copy.jpg,14,20,3,48,507.562751477912,2,0.519939228266594
Stesso monumento?,1 = Stesso monumento \n2 = Monumento diverso,Monuments/29 Ponte dei Sospiri copy.jpg,14,21,3,48,510.078418121338,1,0.525359409972225
Stesso monumento?,1 = Stesso monumento \n2 = Monumento diverso,Monuments/37 Statua della liberta copy.jpg,14,22,3,48,512.594037286848,2,0.528828719778176
Stesso monumento?,1 = Stesso monumento \n2 = Monumento diverso,Monuments/39 Taj Mahal copy.jpg,14,23,3,48,515.109696658881,2,0.520290393764299
Stesso monumento?,1 = Stesso monumento \n2 = Monumento diverso,Monuments/39 Taj Mahal copy.jpg,14,24,3,48,517.625391960149,1,0.519655643947772
Che lavoro fa?,1 = Presentatore TV/attore\n2 = Cantante/Musicista\n3 = Politico/Sportivo\n4 = Altro/Non so,People/Rihanna/selected/im_07 (1).jpg,8,25,4,49,12.5114573624778,2,1.13490401119998
Che lavoro fa?,1 = Presentatore TV/attore\n2 = Cantante/Musicista\n3 = Politico/Sportivo\n4 = Altro/Non so,People/Matt Damon/selected/im_13.jpg,8,26,4,49,15.0271530914761,1,1.4592427742682
Che lavoro fa?,1 = Presentatore TV/attore\n2 = Cantante/Musicista\n3 = Politico/Sportivo\n4 = Altro/Non so,People/George Bush/selected/im_24.jpg,8,27,4,49,17.5428180239869,3,0.96264086719566
Che lavoro fa?,1 = Presentatore TV/attore\n2 = Cantante/Musicista\n3 = Politico/Sportivo\n4 = Altro/Non so,People/Paolo Bonolis/selected/im_08.jpg,8,28,4,49,20.0584624255061,1,0.890091187542566
Che lavoro fa?,1 = Presentatore TV/attore\n2 = Cantante/Musicista\n3 = Politico/Sportivo\n4 = Altro/Non so,People/Jim Carrey/selected/im_105.jpg,8,29,4,49,22.5741491721965,1,1.13545407067613
Che lavoro fa?,1 = Presentatore TV/attore\n2 = Cantante/Musicista\n3 = Politico/Sportivo\n4 = Altro/Non so,People/Fiorello/selected/im_59.jpg,8,30,4,49,25.0897456680686,1,1.08111666350851
Che lavoro fa?,1 = Presentatore TV/attore\n2 = Cantante/Musicista\n3 = Politico/Sportivo\n4 = Altro/Non so,People/Brad Pitt/selected/im_10.jpg,8,31,4,49,27.6054319870291,1,1.04837957012387
Che lavoro fa?,1 = Presentatore TV/attore\n2 = Cantante/Musicista\n3 = Politico/Sportivo\n4 = Altro/Non so,People/Bill Gates/selected/im_17.jpg,8,32,4,49,30.1210695448844,4,1.43197077413424
Quanti fatti ricordi?,1 = Moltissimo\n2 = Molto\n3 = Poco\n4 = Pochissimo,People/George Clooney/selected/im_01.jpg,7,25,4,50,45.0151587152577,2,1.25536746411126
Quanti fatti ricordi?,1 = Moltissimo\n2 = Molto\n3 = Poco\n4 = Pochissimo,People/Bill Gates/selected/im_43.jpg,7,26,4,50,47.5307517892979,4,0.84375017376442
Quanti fatti ricordi?,1 = Moltissimo\n2 = Molto\n3 = Poco\n4 = Pochissimo,People/Jim Carrey/selected/im_18.jpg,7,27,4,50,50.0463795093874,2,0.888282321660881
Quanti fatti ricordi?,1 = Moltissimo\n2 = Molto\n3 = Poco\n4 = Pochissimo,People/Brad Pitt/selected/im_03.jpg,7,28,4,50,52.5620311822986,2,0.672640187105571
Quanti fatti ricordi?,1 = Moltissimo\n2 = Molto\n3 = Poco\n4 = Pochissimo,People/Johnny Depp/selected/im_27.jpg,7,29,4,50,55.0777405986246,2,0.859031647240045
Quanti fatti ricordi?,1 = Moltissimo\n2 = Molto\n3 = Poco\n4 = Pochissimo,People/Cameron Diaz/selected/im_29.jpg,7,30,4,50,57.5934525813245,2,0.727384364538011
Quanti fatti ricordi?,1 = Moltissimo\n2 = Molto\n3 = Poco\n4 = Pochissimo,People/Mike Tyson/selected/im_01.jpg,7,31,4,50,60.109025552103,4,1.39293152187201
Quanti fatti ricordi?,1 = Moltissimo\n2 = Molto\n3 = Poco\n4 = Pochissimo,People/Giorgio Napolitano/selected/im_06.jpg,7,32,4,50,62.6246951896319,2,1.57731180031624
Quanto affidabile?,1 = Moltissimo\n2 = Molto\n3 = Poco\n4 = Pochissimo,People/Britney Spears/selected/im_24.jpg,4,25,4,51,77.5186834159649,3,1.08702402853123
Quanto affidabile?,1 = Moltissimo\n2 = Molto\n3 = Poco\n4 = Pochissimo,People/Paolo Bonolis/selected/im_20.jpg,4,26,4,51,80.0343667408215,2,0.891302943759001
Quanto affidabile?,1 = Moltissimo\n2 = Molto\n3 = Poco\n4 = Pochissimo,People/Fiorello/selected/im_18.jpg,4,27,4,51,82.5500072927807,2,0.775704052603032
Quanto affidabile?,1 = Moltissimo\n2 = Molto\n3 = Poco\n4 = Pochissimo,People/Arnold Schwarzenegger/selected/im_13.jpg,4,28,4,51,85.0657025940491,3,1.04018428275594
Quanto affidabile?,1 = Moltissimo\n2 = Molto\n3 = Poco\n4 = Pochissimo,People/Angelina Jolie/selected/im_15.jpg,4,29,4,51,87.5813298864086,2,0.825558859998637
Quanto affidabile?,1 = Moltissimo\n2 = Molto\n3 = Poco\n4 = Pochissimo,People/Matt Damon/selected/im_09.jpg,4,30,4,51,90.0970940520438,3,0.770981924601074
Quanto affidabile?,1 = Moltissimo\n2 = Molto\n3 = Poco\n4 = Pochissimo,People/Sabrina Ferilli/selected/im_11.jpg,4,31,4,51,92.6126653119081,2,0.897391238142518
Quanto affidabile?,1 = Moltissimo\n2 = Molto\n3 = Poco\n4 = Pochissimo,People/Filippo Inzaghi/selected/im_09.jpg,4,32,4,51,95.1283174125492,3,0.822907368017695
Stesso monumento?,1 = Stesso monumento \n2 = Monumento diverso,Monuments/26 Piazza San Marco  copy.jpg,14,25,4,52,110.022297084301,,
Stesso monumento?,1 = Stesso monumento \n2 = Monumento diverso,Monuments/26 Piazza San Marco  copy.jpg,14,26,4,52,112.537959022709,1,0.762794336355
Stesso monumento?,1 = Stesso monumento \n2 = Monumento diverso,Monuments/36 Sfinge copy.jpg,14,27,4,52,115.053613261995,2,0.520214258003762
Stesso monumento?,1 = Stesso monumento \n2 = Monumento diverso,Monuments/27 Piazza San Pietro copy.jpg,14,28,4,52,117.569358179826,2,0.551550111231336
Stesso monumento?,1 = Stesso monumento \n2 = Monumento diverso,Monuments/4 Arco di Costantino copy.jpg,14,29,4,52,120.0849709294,2,0.520050010072737
Stesso monumento?,1 = Stesso monumento \n2 = Monumento diverso,Monuments/43 Tower Bridge copy.jpg,14,30,4,52,122.600628162789,2,0.519456322239421
Stesso monumento?,1 = Stesso monumento \n2 = Monumento diverso,Monuments/24 Pantheon copy.jpg,14,31,4,52,125.116225514121,2,0.519948638302594
Stesso monumento?,1 = Stesso monumento \n2 = Monumento diverso,Monuments/20 Mole Antonelliana copy.jpg,14,32,4,52,127.631922526305,2,0.51933655812536
Stesso monumento?,1 = Stesso monumento \n2 = Monumento diverso,Monuments/3 Ara Pacis copy.jpg,16,25,4,53,142.525962935573,,
Stesso monumento?,1 = Stesso monumento \n2 = Monumento diverso,Monuments/3 Ara Pacis copy.jpg,16,26,4,53,145.041588944747,1,0.61229318768892
Stesso monumento?,1 = Stesso monumento \n2 = Monumento diverso,Monuments/32 Ponte vecchio copy.jpg,16,27,4,53,147.557250027696,2,0.53566425669851
Stesso monumento?,1 = Stesso monumento \n2 = Monumento diverso,Monuments/2 Altare della Patria copy.jpg,16,28,4,53,150.072906833357,2,0.520173196020551
Stesso monumento?,1 = Stesso monumento \n2 = Monumento diverso,Monuments/37 Statua della liberta copy.jpg,16,29,4,53,152.58855807854,2,0.525574985382264
Stesso monumento?,1 = Stesso monumento \n2 = Monumento diverso,Monuments/18 Louvre copy.jpg,16,30,4,53,155.104294014061,2,0.519921691377021
Stesso monumento?,1 = Stesso monumento \n2 = Monumento diverso,Monuments/39 Taj Mahal copy.jpg,16,31,4,53,157.619907191365,2,0.519385746958505
Stesso monumento?,1 = Stesso monumento \n2 = Monumento diverso,Monuments/1 Acropoli copy.jpg,16,32,4,53,160.135539616473,2,0.519868652982041
Stesso monumento?,1 = Stesso monumento \n2 = Monumento diverso,Monuments/45 White House copy.jpg,15,25,4,54,175.012938801821,,
Stesso monumento?,1 = Stesso monumento \n2 = Monumento diverso,Monuments/14 Empire State Building copy.jpg,15,26,4,54,177.528542569087,2,0.608442343629576
Stesso monumento?,1 = Stesso monumento \n2 = Monumento diverso,Monuments/21 Muraglia Cinese copy.jpg,15,27,4,54,180.044393991435,2,0.519683446331328
Stesso monumento?,1 = Stesso monumento \n2 = Monumento diverso,Monuments/21 Muraglia Cinese copy.jpg,15,28,4,54,182.559856608135,1,0.550314402189542
Stesso monumento?,1 = Stesso monumento \n2 = Monumento diverso,Monuments/23 Palazzo vecchio copy.jpg,15,29,4,54,185.075506142402,2,0.519739906558243
Stesso monumento?,1 = Stesso monumento \n2 = Monumento diverso,Monuments/23 Palazzo vecchio copy.jpg,15,30,4,54,187.591210425981,1,0.52012742901934
Stesso monumento?,1 = Stesso monumento \n2 = Monumento diverso,Monuments/38 Stonehenge copy.jpg,15,31,4,54,190.106799650461,2,0.706586898062596
Stesso monumento?,1 = Stesso monumento \n2 = Monumento diverso,Monuments/40 Teatro dell Opera copy.jpg,15,32,4,54,192.622485541691,2,0.520161647336863
Stesso volto?,1 = Stesso volto\n2 = Volto diverso,People/Giorgio Napolitano/selected/im_xx.jpg,11,25,4,55,207.516641865515,,
Stesso volto?,1 = Stesso volto\n2 = Volto diverso,People/Giorgio Napolitano/selected/im_xx.jpg,11,26,4,55,210.032156237423,1,0.526953555903674
Stesso volto?,1 = Stesso volto\n2 = Volto diverso,People/Jim Carrey/selected/im_51 (1).jpg,11,27,4,55,212.547818175832,2,0.911410055650776
Stesso volto?,1 = Stesso volto\n2 = Volto diverso,People/Jim Carrey/selected/im_51 (1).jpg,11,28,4,55,215.063505350248,1,0.519890467161531
Stesso volto?,1 = Stesso volto\n2 = Volto diverso,People/Brad Pitt/selected/im_16.jpg,11,29,4,55,217.579163866825,2,0.520313491128036
Stesso volto?,1 = Stesso volto\n2 = Volto diverso,People/Paolo Bonolis/selected/im_38.jpg,11,30,4,55,220.094775760941,2,0.566642100764511
Stesso volto?,1 = Stesso volto\n2 = Volto diverso,People/Paolo Bonolis/selected/im_38.jpg,11,31,4,55,222.610409896964,1,0.520140260889093
Stesso volto?,1 = Stesso volto\n2 = Volto diverso,People/Arnold Schwarzenegger/selected/im_01.jpg,11,32,4,55,225.126067558083,2,0.5195666763193
Quanto amichevole?,1 = Moltissimo\n2 = Molto\n3 = Poco\n4 = Pochissimo,People/Matteo Salvini/selected/im_59.jpg,3,25,4,56,240.020207628206,4,1.02892944995256
Quanto amichevole?,1 = Moltissimo\n2 = Molto\n3 = Poco\n4 = Pochissimo,People/Giorgia Meloni/selected/im_49.jpg,3,26,4,56,242.535751085685,4,0.734494075739349
Quanto amichevole?,1 = Moltissimo\n2 = Molto\n3 = Poco\n4 = Pochissimo,People/Donald Trump/selected/im_23.jpg,3,27,4,56,245.051422861858,4,0.579897849764166
Quanto amichevole?,1 = Moltissimo\n2 = Molto\n3 = Poco\n4 = Pochissimo,People/Rihanna/selected/im_13.jpg,3,28,4,56,247.567082233893,2,0.806324742967263
Quanto amichevole?,1 = Moltissimo\n2 = Molto\n3 = Poco\n4 = Pochissimo,People/Mike Tyson/selected/im_10.jpg,3,29,4,56,250.082773685601,3,0.930829807062764
Quanto amichevole?,1 = Moltissimo\n2 = Molto\n3 = Poco\n4 = Pochissimo,People/Sabrina Ferilli/selected/im_04.jpg,3,30,4,56,252.598377452867,2,0.758210792542741
Quanto amichevole?,1 = Moltissimo\n2 = Molto\n3 = Poco\n4 = Pochissimo,People/Cameron Diaz/selected/im_114.jpg,3,31,4,56,255.114048801312,2,0.722625024114677
Quanto amichevole?,1 = Moltissimo\n2 = Molto\n3 = Poco\n4 = Pochissimo,People/Hillary Clinton/selected/im_31.jpg,3,32,4,56,257.629737258916,3,1.34804735302168
Quanto attraente?,1 = Moltissimo\n2 = Molto\n3 = Poco\n4 = Pochissimo,People/Robin Williams/selected/im_13.jpg,2,25,4,57,272.523823862915,3,1.47445752202111
Quanto attraente?,1 = Moltissimo\n2 = Molto\n3 = Poco\n4 = Pochissimo,People/George Bush/selected/im_28.jpg,2,26,4,57,275.039378441348,3,0.838989977883102
Quanto attraente?,1 = Moltissimo\n2 = Molto\n3 = Poco\n4 = Pochissimo,People/Arnold Schwarzenegger/selected/im_43.jpg,2,27,4,57,277.555006161438,4,0.764443231595578
Quanto attraente?,1 = Moltissimo\n2 = Molto\n3 = Poco\n4 = Pochissimo,People/Sandra Bullock/selected/im_18.jpg,2,28,4,57,280.070666816659,2,0.849956093619767
Quanto attraente?,1 = Moltissimo\n2 = Molto\n3 = Poco\n4 = Pochissimo,People/Brad Pitt/selected/im_06.jpg,2,29,4,57,282.586418578152,2,0.735193840360807
Quanto attraente?,1 = Moltissimo\n2 = Molto\n3 = Poco\n4 = Pochissimo,People/Paolo Bonolis/selected/im_16.jpg,2,30,4,57,285.101988982558,3,0.878760646708542
Quanto attraente?,1 = Moltissimo\n2 = Molto\n3 = Poco\n4 = Pochissimo,People/Bill Gates/selected/im_07.jpg,2,31,4,57,287.617634239536,4,0.843168890072775
Quanto attraente?,1 = Moltissimo\n2 = Molto\n3 = Poco\n4 = Pochissimo,People/Johnny Depp/selected/im_68.jpg,2,32,4,57,290.133319275308,1,0.807682354767167
Nome comune?,1 = Moltissimo\n2 = Molto\n3 = Poco\n4 = Pochissimo,People/Bill Gates/selected/im_14 (1).jpg,6,25,4,58,305.027314773033,4,0.776012017473477
Nome comune?,1 = Moltissimo\n2 = Molto\n3 = Poco\n4 = Pochissimo,People/Arnold Schwarzenegger/selected/im_12.jpg,6,26,4,58,307.542974145066,4,0.903511612199509
Nome comune?,1 = Moltissimo\n2 = Molto\n3 = Poco\n4 = Pochissimo,People/Angelina Jolie/selected/im_22.jpg,6,27,4,58,310.058678000916,2,1.42807544625975
Nome comune?,1 = Moltissimo\n2 = Molto\n3 = Poco\n4 = Pochissimo,People/Mike Tyson/selected/im_41.jpg,6,28,4,58,312.574318552874,4,1.07236105116863
Nome comune?,1 = Moltissimo\n2 = Molto\n3 = Poco\n4 = Pochissimo,People/Sandra Bullock/selected/im_04.jpg,6,29,4,58,315.089959104833,4,1.37681554914707
Nome comune?,1 = Moltissimo\n2 = Molto\n3 = Poco\n4 = Pochissimo,People/Giorgio Napolitano/selected/im_x2.jpg,6,30,4,58,317.605602223164,3,1.82536809287194
Nome comune?,1 = Moltissimo\n2 = Molto\n3 = Poco\n4 = Pochissimo,People/Matteo Salvini/selected/im_09.jpg,6,31,4,58,320.121265872489,2,1.44979980144853
Nome comune?,1 = Moltissimo\n2 = Molto\n3 = Poco\n4 = Pochissimo,People/George Clooney/selected/im_11.jpg,6,32,4,58,322.63691369584,2,0.99419614539147
Memoria remota?,1 = Moltissimo\n2 = Molto\n3 = Poco\n4 = Pochissimo,People/Bill Gates/selected/im_23.jpg,1,25,4,59,337.514313308917,4,0.820182306648348
Memoria remota?,1 = Moltissimo\n2 = Molto\n3 = Poco\n4 = Pochissimo,People/Michelle Obama/selected/im_10.jpg,1,26,4,59,340.029978241428,3,1.24476235163638
Memoria remota?,1 = Moltissimo\n2 = Molto\n3 = Poco\n4 = Pochissimo,People/Mike Tyson/selected/im_11.jpg,1,27,4,59,342.545577731404,3,0.868127731850109
Memoria remota?,1 = Moltissimo\n2 = Molto\n3 = Poco\n4 = Pochissimo,People/Angelina Jolie/selected/im_46.jpg,1,28,4,59,345.061233253877,2,0.874663858483473
Memoria remota?,1 = Moltissimo\n2 = Molto\n3 = Poco\n4 = Pochissimo,People/Arnold Schwarzenegger/selected/im_45.jpg,1,29,4,59,347.576911445985,3,0.939960965451974
Memoria remota?,1 = Moltissimo\n2 = Molto\n3 = Poco\n4 = Pochissimo,People/Angelino Alfano/selected/im_73.jpg,1,30,4,59,350.092573384394,3,1.46351493137809
Memoria remota?,1 = Moltissimo\n2 = Molto\n3 = Poco\n4 = Pochissimo,People/Hillary Clinton/selected/im_13.jpg,1,31,4,59,352.608224629577,3,0.967828792063301
Memoria remota?,1 = Moltissimo\n2 = Molto\n3 = Poco\n4 = Pochissimo,People/Michelle Hunziker/selected/im_05.jpg,1,32,4,59,355.123875447031,2,0.83231526705822
Stesso volto?,1 = Stesso volto\n2 = Volto diverso,People/Fiorello/selected/im_18.jpg,12,25,4,60,370.017922699963,,
Stesso volto?,1 = Stesso volto\n2 = Volto diverso,People/Fiorello/selected/im_18.jpg,12,26,4,60,372.533546570492,1,0.756279596173044
Stesso volto?,1 = Stesso volto\n2 = Volto diverso,People/Fiorello/selected/im_18.jpg,12,27,4,60,375.049200382049,1,0.519614581964561
Stesso volto?,1 = Stesso volto\n2 = Volto diverso,People/Roberto Maroni/selected/im_30.jpg,12,28,4,60,377.564879001886,2,0.52013213403734
Stesso volto?,1 = Stesso volto\n2 = Volto diverso,People/Paolo Bonolis/selected/im_08.jpg,12,29,4,60,380.080526397509,2,0.71247073799168
Stesso volto?,1 = Stesso volto\n2 = Volto diverso,People/Giorgia Meloni/selected/im_67.jpg,12,30,4,60,382.596175504048,2,0.519904154487449
Stesso volto?,1 = Stesso volto\n2 = Volto diverso,People/Giorgia Meloni/selected/im_67.jpg,12,31,4,60,385.111843430661,1,0.519321587609738
Stesso volto?,1 = Stesso volto\n2 = Volto diverso,People/Giorgia Meloni/selected/im_67.jpg,12,32,4,60,387.627464734815,1,0.519786956747339
Quanto familiare?,1 = Moltissimo\n2 = Molto\n3 = Poco\n4 = Pochissimo,People/Jim Carrey/selected/im_08.jpg,5,25,4,61,402.521573152992,2,1.37020200356892
Quanto familiare?,1 = Moltissimo\n2 = Molto\n3 = Poco\n4 = Pochissimo,People/Silvio Berlusconi/selected/Silvio Berlusconi_8.jpg,5,26,4,61,405.037139280108,4,0.934788866556119
Quanto familiare?,1 = Moltissimo\n2 = Molto\n3 = Poco\n4 = Pochissimo,People/Brad Pitt/selected/im_04.jpg,5,27,4,61,407.552803357161,2,0.919147245274871
Quanto familiare?,1 = Moltissimo\n2 = Molto\n3 = Poco\n4 = Pochissimo,People/Arnold Schwarzenegger/selected/im_26.jpg,5,28,4,61,410.068483687914,3,0.866505783538742
Quanto familiare?,1 = Moltissimo\n2 = Molto\n3 = Poco\n4 = Pochissimo,People/Michelle Hunziker/selected/im_27.jpg,5,29,4,61,412.584137071743,2,0.794981370263486
Quanto familiare?,1 = Moltissimo\n2 = Molto\n3 = Poco\n4 = Pochissimo,People/Mike Tyson/selected/im_01.jpg,5,30,4,61,415.099762653186,3,1.23859578284828
Quanto familiare?,1 = Moltissimo\n2 = Molto\n3 = Poco\n4 = Pochissimo,People/George Clooney/selected/im_04.jpg,5,31,4,61,417.615416037015,2,1.10288806888457
Quanto familiare?,1 = Moltissimo\n2 = Molto\n3 = Poco\n4 = Pochissimo,People/Filippo Inzaghi/selected/im_33.jpg,5,32,4,61,420.131116043303,3,0.890376055047454
Sicuramente conoscere\n(nome e cognome)?,1 = Moltissimo\n2 = Molto\n3 = Poco\n4 = Pochissimo,People/Paolo Bonolis/selected/im_03.jpg,10,25,4,62,435.025095287325,1,0.915896504982811
Sicuramente conoscere\n(nome e cognome)?,1 = Moltissimo\n2 = Molto\n3 = Poco\n4 = Pochissimo,People/Matteo Renzi/selected/im_16.jpg,10,26,4,62,437.540770485331,1,0.740215806381457
Sicuramente conoscere\n(nome e cognome)?,1 = Moltissimo\n2 = Molto\n3 = Poco\n4 = Pochissimo,People/Arnold Schwarzenegger/selected/im_05.jpg,10,27,4,62,440.056410181833,3,1.08476091446755
Sicuramente conoscere\n(nome e cognome)?,1 = Moltissimo\n2 = Molto\n3 = Poco\n4 = Pochissimo,People/Fiorello/selected/im_77.jpg,10,28,4,62,442.57206014383,1,0.890096320290468
Sicuramente conoscere\n(nome e cognome)?,1 = Moltissimo\n2 = Molto\n3 = Poco\n4 = Pochissimo,People/Laura Pausini/selected/im_10.jpg,10,29,4,62,445.08775031235,1,0.756575156901818
Sicuramente conoscere\n(nome e cognome)?,1 = Moltissimo\n2 = Molto\n3 = Poco\n4 = Pochissimo,People/Britney Spears/selected/im_23.jpg,10,30,4,62,447.603379315626,1,0.903952600785487
Sicuramente conoscere\n(nome e cognome)?,1 = Moltissimo\n2 = Molto\n3 = Poco\n4 = Pochissimo,People/Hillary Clinton/selected/im_10.jpg,10,31,4,62,450.11905921865,3,0.86947550588593
Sicuramente conoscere\n(nome e cognome)?,1 = Moltissimo\n2 = Molto\n3 = Poco\n4 = Pochissimo,People/Rihanna/selected/im_08 (1).jpg,10,32,4,62,452.634754519921,1,0.89275294502113
Stesso volto?,1 = Stesso volto\n2 = Volto diverso,People/Johnny Depp/selected/im_27.jpg,13,25,4,63,467.512115209658,,
Stesso volto?,1 = Stesso volto\n2 = Volto diverso,People/Johnny Depp/selected/im_27.jpg,13,26,4,63,470.027698445932,1,0.677407654382478
Stesso volto?,1 = Stesso volto\n2 = Volto diverso,People/Johnny Depp/selected/im_27.jpg,13,27,4,63,472.543370222107,1,0.51982801873055
Stesso volto?,1 = Stesso volto\n2 = Volto diverso,People/Daniel Radcliffe/selected/im_56.jpg,13,28,4,63,475.059013768168,2,0.520250187239071
Stesso volto?,1 = Stesso volto\n2 = Volto diverso,People/Daniel Radcliffe/selected/im_56.jpg,13,29,4,63,477.574697520755,1,0.519663770797706
Stesso volto?,1 = Stesso volto\n2 = Volto diverso,People/Matteo Renzi/selected/im_19.jpg,13,30,4,63,480.090355181874,2,0.520095777073948
Stesso volto?,1 = Stesso volto\n2 = Volto diverso,People/Matteo Salvini/selected/im_49.jpg,13,31,4,63,482.605994022915,2,0.524535176218706
Stesso volto?,1 = Stesso volto\n2 = Volto diverso,People/Angelina Jolie/selected/im_33.jpg,13,32,4,63,485.121656816782,2,0.519966602922068
Volto distintivo?,1 = Moltissimo\n2 = Molto\n3 = Poco\n4 = Pochissimo,People/Robin Williams/selected/im_20.jpg,9,25,4,64,500.01572288979,2,1.20736600641067
Volto distintivo?,1 = Moltissimo\n2 = Molto\n3 = Poco\n4 = Pochissimo,People/Britney Spears/selected/im_23.jpg,9,26,4,64,502.531300993316,3,1.25415442470694
Volto distintivo?,1 = Moltissimo\n2 = Molto\n3 = Poco\n4 = Pochissimo,People/Paolo Bonolis/selected/im_13.jpg,9,27,4,64,505.047064731223,3,1.35841507590703
Volto distintivo?,1 = Moltissimo\n2 = Molto\n3 = Poco\n4 = Pochissimo,People/Barack Obama/selected/im_01.jpg,9,28,4,64,507.562719825966,3,1.66678500501985
Volto distintivo?,1 = Moltissimo\n2 = Molto\n3 = Poco\n4 = Pochissimo,People/Giorgia Meloni/selected/im_67.jpg,9,29,4,64,510.07833685283,3,1.0132270911563
Volto distintivo?,1 = Moltissimo\n2 = Molto\n3 = Poco\n4 = Pochissimo,People/Rihanna/selected/im_02 (1).jpg,9,30,4,64,512.59396457292,2,1.23969932363252
Volto distintivo?,1 = Moltissimo\n2 = Molto\n3 = Poco\n4 = Pochissimo,People/Matteo Renzi/selected/im_49.jpg,9,31,4,64,515.109648325506,2,1.24703786984173
Volto distintivo?,1 = Moltissimo\n2 = Molto\n3 = Poco\n4 = Pochissimo,People/Angelina Jolie/selected/im_33.jpg,9,32,4,64,517.625237977716,2,1.3945906826084
Che lavoro fa?,1 = Presentatore TV/attore\n2 = Cantante/Musicista\n3 = Politico/Sportivo\n4 = Altro/Non so,People/Daniel Radcliffe/selected/im_21.jpg,8,33,5,65,12.5115493242083,1,1.31457584896634
Che lavoro fa?,1 = Presentatore TV/attore\n2 = Cantante/Musicista\n3 = Politico/Sportivo\n4 = Altro/Non so,People/Hillary Clinton/selected/im_09.jpg,8,34,5,65,15.027221955841,3,0.882977199049492
Che lavoro fa?,1 = Presentatore TV/attore\n2 = Cantante/Musicista\n3 = Politico/Sportivo\n4 = Altro/Non so,People/Matteo Salvini/selected/im_31.jpg,8,35,5,65,17.5429424931208,3,0.867337716414113
Che lavoro fa?,1 = Presentatore TV/attore\n2 = Cantante/Musicista\n3 = Politico/Sportivo\n4 = Altro/Non so,People/Angelina Jolie/selected/im_42.jpg,8,36,5,65,20.0585522485926,1,1.11382467132353
Che lavoro fa?,1 = Presentatore TV/attore\n2 = Cantante/Musicista\n3 = Politico/Sportivo\n4 = Altro/Non so,People/Romano Prodi/selected/im_12.jpg,8,37,5,65,22.5741829627841,3,0.838374903600197
Che lavoro fa?,1 = Presentatore TV/attore\n2 = Cantante/Musicista\n3 = Politico/Sportivo\n4 = Altro/Non so,People/Robin Williams/selected/im_10.jpg,8,38,5,65,25.0898017005638,1,0.922747440148669
Che lavoro fa?,1 = Presentatore TV/attore\n2 = Cantante/Musicista\n3 = Politico/Sportivo\n4 = Altro/Non so,People/Julia Roberts/selected/im_104.jpg,8,39,5,65,27.6055076950579,1,0.907113517989274
Che lavoro fa?,1 = Presentatore TV/attore\n2 = Cantante/Musicista\n3 = Politico/Sportivo\n4 = Altro/Non so,People/Angelino Alfano/selected/im_73.jpg,8,40,5,65,30.1211294269415,3,0.892586130716154
Stesso monumento?,1 = Stesso monumento \n2 = Monumento diverso,Monuments/22 Notre Dame copy.jpg,15,33,5,66,45.0151788185176,,
Stesso monumento?,1 = Stesso monumento \n2 = Monumento diverso,Monuments/17 House of Parliament copy.jpg,15,34,5,66,47.5308219368508,2,0.552482560420685
Stesso monumento?,1 = Stesso monumento \n2 = Monumento diverso,Monuments/34 San Pietro copy.jpg,15,35,5,66,50.0464620610801,2,0.51993580643466
Stesso monumento?,1 = Stesso monumento \n2 = Monumento diverso,Monuments/36 Sfinge copy.jpg,15,36,5,66,52.5620987634775,2,0.519374198274818
Stesso monumento?,1 = Stesso monumento \n2 = Monumento diverso,Monuments/33 Porta di Brandeburgo copy.jpg,15,37,5,66,55.0777448759127,2,0.519826307814583
Stesso monumento?,1 = Stesso monumento \n2 = Monumento diverso,Monuments/33 Porta di Brandeburgo copy.jpg,15,38,5,66,57.5934162243593,1,0.520252325883121
Stesso monumento?,1 = Stesso monumento \n2 = Monumento diverso,Monuments/44 Versailles copy.jpg,15,39,5,66,60.1091423221151,2,0.539595513806489
Stesso monumento?,1 = Stesso monumento \n2 = Monumento diverso,Monuments/44 Versailles copy.jpg,15,40,5,66,62.6247375348012,1,0.520094921615964
Nome comune?,1 = Moltissimo\n2 = Molto\n3 = Poco\n4 = Pochissimo,People/Romano Prodi/selected/im_12.jpg,6,33,5,67,77.5188369706684,2,1.25963234982737
Nome comune?,1 = Moltissimo\n2 = Molto\n3 = Poco\n4 = Pochissimo,People/Michelle Obama/selected/im_42.jpg,6,34,5,67,80.0343868440814,2,1.80420149628117
Nome comune?,1 = Moltissimo\n2 = Molto\n3 = Poco\n4 = Pochissimo,People/Filippo Inzaghi/selected/im_03.jpg,6,35,5,67,82.5500492102183,3,0.94850399648567
Nome comune?,1 = Moltissimo\n2 = Molto\n3 = Poco\n4 = Pochissimo,People/Matteo Renzi/selected/im_15.jpg,6,36,5,67,85.0657620483762,2,1.17385600674788
Nome comune?,1 = Moltissimo\n2 = Molto\n3 = Poco\n4 = Pochissimo,People/Bill Clinton/selected/im_27.jpg,6,37,5,67,87.5813760811379,4,1.63842144051523
Nome comune?,1 = Moltissimo\n2 = Molto\n3 = Poco\n4 = Pochissimo,People/Fiorello/selected/im_29.jpg,6,38,5,67,90.0970440077508,2,2.10179222722218
Nome comune?,1 = Moltissimo\n2 = Molto\n3 = Poco\n4 = Pochissimo,People/Laura Pausini/selected/im_07.jpg,6,39,5,67,92.6126785715041,2,1.10628209838615
Nome comune?,1 = Moltissimo\n2 = Molto\n3 = Poco\n4 = Pochissimo,People/Jim Carrey/selected/im_07.jpg,6,40,5,67,95.1283152739015,2,1.2127344329092
Quanti fatti ricordi?,1 = Moltissimo\n2 = Molto\n3 = Poco\n4 = Pochissimo,People/Michelle Hunziker/selected/im_47.jpg,7,33,5,68,110.022466464978,2,0.859056027791667
Quanti fatti ricordi?,1 = Moltissimo\n2 = Molto\n3 = Poco\n4 = Pochissimo,People/George Bush/selected/im_03.jpg,7,34,5,68,112.538064671766,3,1.05064824466353
Quanti fatti ricordi?,1 = Moltissimo\n2 = Molto\n3 = Poco\n4 = Pochissimo,People/Julia Roberts/selected/im_13.jpg,7,35,5,68,115.053704368267,2,0.838935228572154
Quanti fatti ricordi?,1 = Moltissimo\n2 = Molto\n3 = Poco\n4 = Pochissimo,People/Paolo Bonolis/selected/im_38.jpg,7,36,5,68,117.569337221104,2,0.8044731041864
Quanti fatti ricordi?,1 = Moltissimo\n2 = Molto\n3 = Poco\n4 = Pochissimo,People/Matteo Renzi/selected/im_14.jpg,7,37,5,68,120.08497862852,2,0.788846881148856
Quanti fatti ricordi?,1 = Moltissimo\n2 = Molto\n3 = Poco\n4 = Pochissimo,People/Arnold Schwarzenegger/selected/im_05.jpg,7,38,5,68,122.600634150993,3,0.814278363457561
Quanti fatti ricordi?,1 = Moltissimo\n2 = Molto\n3 = Poco\n4 = Pochissimo,People/Filippo Inzaghi/selected/im_15.jpg,7,39,5,68,125.116277269326,3,0.737804270360357
Quanti fatti ricordi?,1 = Moltissimo\n2 = Molto\n3 = Poco\n4 = Pochissimo,People/Laura Pausini/selected/im_15.jpg,7,40,5,68,127.631950756417,2,0.804136053746333
Stesso volto?,1 = Stesso volto\n2 = Volto diverso,People/Barack Obama/selected/im_05.jpg,13,33,5,69,142.525940693664,,
Stesso volto?,1 = Stesso volto\n2 = Volto diverso,People/Bill Gates/selected/im_09.jpg,13,34,5,69,145.041669357794,2,0.591012815188151
Stesso volto?,1 = Stesso volto\n2 = Volto diverso,People/Tom Cruise/selected/im_05.jpg,13,35,5,69,147.55736209269,2,0.536404227843377
Stesso volto?,1 = Stesso volto\n2 = Volto diverso,People/Paris Hilton/selected/im_26.jpg,13,36,5,69,150.072959016292,2,0.519891322619515
Stesso volto?,1 = Stesso volto\n2 = Volto diverso,People/Romano Prodi/selected/im_30.jpg,13,37,5,69,152.58865388983,2,0.596287141312132
Stesso volto?,1 = Stesso volto\n2 = Volto diverso,People/Silvio Berlusconi/selected/Silvio Berlusconi_8.jpg,13,38,5,69,155.104305135013,2,0.519720231024621
Stesso volto?,1 = Stesso volto\n2 = Volto diverso,People/Sandra Bullock/selected/im_24.jpg,13,39,5,69,157.619899492242,2,0.520213830275679
Stesso volto?,1 = Stesso volto\n2 = Volto diverso,People/Sandra Bullock/selected/im_24.jpg,13,40,5,69,160.135529778705,1,0.519682163145262
Volto distintivo?,1 = Moltissimo\n2 = Molto\n3 = Poco\n4 = Pochissimo,People/Sandra Bullock/selected/im_24.jpg,9,33,5,70,175.029683536155,3,1.46826058447368
Volto distintivo?,1 = Moltissimo\n2 = Molto\n3 = Poco\n4 = Pochissimo,People/Giorgio Napolitano/selected/im_46.jpg,9,34,5,70,177.545209029016,2,1.15270694704668
Volto distintivo?,1 = Moltissimo\n2 = Molto\n3 = Poco\n4 = Pochissimo,People/Arnold Schwarzenegger/selected/im_12.jpg,9,35,5,70,180.060914595781,3,0.837994224802969
Volto distintivo?,1 = Moltissimo\n2 = Molto\n3 = Poco\n4 = Pochissimo,People/Mike Tyson/selected/im_04.jpg,9,36,5,70,182.576521784878,1,1.20148430512745
Volto distintivo?,1 = Moltissimo\n2 = Molto\n3 = Poco\n4 = Pochissimo,People/Michelle Obama/selected/im_06.jpg,9,37,5,70,185.09224061124,2,1.06597505741047
Volto distintivo?,1 = Moltissimo\n2 = Molto\n3 = Poco\n4 = Pochissimo,People/George Clooney/selected/im_01.jpg,9,38,5,70,187.607847800338,3,1.53034116946947
Volto distintivo?,1 = Moltissimo\n2 = Molto\n3 = Poco\n4 = Pochissimo,People/Paris Hilton/selected/im_26.jpg,9,39,5,70,190.123522570617,2,1.19473645264588
Volto distintivo?,1 = Moltissimo\n2 = Molto\n3 = Poco\n4 = Pochissimo,People/George Bush/selected/im_85.jpg,9,40,5,70,192.639196485436,3,1.19915446534105
Quanto familiare?,1 = Moltissimo\n2 = Molto\n3 = Poco\n4 = Pochissimo,People/Hillary Clinton/selected/im_10.jpg,5,33,5,71,207.516505419968,3,0.90532176126726
Quanto familiare?,1 = Moltissimo\n2 = Molto\n3 = Poco\n4 = Pochissimo,People/Roberto Maroni/selected/im_31.jpg,5,34,5,71,210.03222424633,4,0.888776776369923
Quanto familiare?,1 = Moltissimo\n2 = Molto\n3 = Poco\n4 = Pochissimo,People/Bill Gates/selected/im_09.jpg,5,35,5,71,212.547831863158,4,0.956305345458532
Quanto familiare?,1 = Moltissimo\n2 = Molto\n3 = Poco\n4 = Pochissimo,People/Sandra Bullock/selected/im_08.jpg,5,36,5,71,215.063541707212,3,1.32058672440508
Quanto familiare?,1 = Moltissimo\n2 = Molto\n3 = Poco\n4 = Pochissimo,People/Bill Clinton/selected/im_12.jpg,5,37,5,71,217.57914846858,4,0.865042522676958
Quanto familiare?,1 = Moltissimo\n2 = Molto\n3 = Poco\n4 = Pochissimo,People/Matt Damon/selected/im_21.jpg,5,38,5,71,220.094849758054,3,1.31054749737814
Quanto familiare?,1 = Moltissimo\n2 = Molto\n3 = Poco\n4 = Pochissimo,People/Paris Hilton/selected/im_16.jpg,5,39,5,71,222.610469779022,4,1.03691600557613
Quanto familiare?,1 = Moltissimo\n2 = Molto\n3 = Poco\n4 = Pochissimo,People/Cameron Diaz/selected/im_107.jpg,5,40,5,71,225.126162941646,2,0.985312642085773
Sicuramente conoscere\n(nome e cognome)?,1 = Moltissimo\n2 = Molto\n3 = Poco\n4 = Pochissimo,People/Robin Williams/selected/im_85.jpg,10,33,5,72,240.020128926069,1,0.833807613491444
Sicuramente conoscere\n(nome e cognome)?,1 = Moltissimo\n2 = Molto\n3 = Poco\n4 = Pochissimo,People/Mike Tyson/selected/im_10.jpg,10,34,5,72,242.535782309898,3,1.7173134855675
Sicuramente conoscere\n(nome e cognome)?,1 = Moltissimo\n2 = Molto\n3 = Poco\n4 = Pochissimo,People/Giorgio Napolitano/selected/im_41.jpg,10,35,5,72,245.051447670137,1,1.12177615316796
Sicuramente conoscere\n(nome e cognome)?,1 = Moltissimo\n2 = Molto\n3 = Poco\n4 = Pochissimo,People/Tom Cruise/selected/im_02.jpg,10,36,5,72,247.567075390227,1,0.966171342242887
Sicuramente conoscere\n(nome e cognome)?,1 = Moltissimo\n2 = Molto\n3 = Poco\n4 = Pochissimo,People/Daniel Radcliffe/selected/im_11.jpg,10,37,5,72,250.082736473178,3,1.31160612661733
Sicuramente conoscere\n(nome e cognome)?,1 = Moltissimo\n2 = Molto\n3 = Poco\n4 = Pochissimo,People/Bill Clinton/selected/im_19.jpg,10,38,5,72,252.598403116604,3,1.25502271454752
Sicuramente conoscere\n(nome e cognome)?,1 = Moltissimo\n2 = Molto\n3 = Poco\n4 = Pochissimo,People/Matt Damon/selected/im_19.jpg,10,39,5,72,255.114094568311,3,1.0394686921627
Sicuramente conoscere\n(nome e cognome)?,1 = Moltissimo\n2 = Molto\n3 = Poco\n4 = Pochissimo,People/Justin Bieber/selected/im_05.jpg,10,40,5,72,257.629728704336,1,1.3239828925507
Quanto amichevole?,1 = Moltissimo\n2 = Molto\n3 = Poco\n4 = Pochissimo,People/Laura Pausini/selected/im_05.jpg,3,33,5,73,272.523729762537,2,1.17236708214841
Quanto amichevole?,1 = Moltissimo\n2 = Molto\n3 = Poco\n4 = Pochissimo,People/Filippo Inzaghi/selected/im_10.jpg,3,34,5,73,275.03939341186,3,0.816793837622754
Quanto amichevole?,1 = Moltissimo\n2 = Molto\n3 = Poco\n4 = Pochissimo,People/Matt Damon/selected/im_13.jpg,3,35,5,73,277.555050645249,3,0.922218339394021
Quanto amichevole?,1 = Moltissimo\n2 = Molto\n3 = Poco\n4 = Pochissimo,People/Daniel Radcliffe/selected/im_02.jpg,3,36,5,73,280.070708734096,2,0.946734053943146
Quanto amichevole?,1 = Moltissimo\n2 = Molto\n3 = Poco\n4 = Pochissimo,People/Tom Cruise/selected/im_10.jpg,3,37,5,73,282.586357840635,3,1.17110357072488
Quanto amichevole?,1 = Moltissimo\n2 = Molto\n3 = Poco\n4 = Pochissimo,People/Michelle Hunziker/selected/im_32.jpg,3,38,5,73,285.102063407399,2,0.915553466338679
Quanto amichevole?,1 = Moltissimo\n2 = Molto\n3 = Poco\n4 = Pochissimo,People/Bill Clinton/selected/im_27.jpg,3,39,5,73,287.617669741039,3,0.860971398191396
Quanto amichevole?,1 = Moltissimo\n2 = Molto\n3 = Poco\n4 = Pochissimo,People/Giorgio Napolitano/selected/im_43.jpg,3,40,5,73,290.133307726624,3,1.16451526115634
Stesso monumento?,1 = Stesso monumento \n2 = Monumento diverso,Monuments/35 Santa Maria del Fiore copy.jpg,16,33,5,74,305.027321188965,,
Stesso monumento?,1 = Stesso monumento \n2 = Monumento diverso,Monuments/35 Santa Maria del Fiore copy.jpg,16,34,5,74,307.542992109682,1,0.518271085222295
Stesso monumento?,1 = Stesso monumento \n2 = Monumento diverso,Monuments/14 Empire State Building copy.jpg,16,35,5,74,310.058661747213,2,0.519728785604457
Stesso monumento?,1 = Stesso monumento \n2 = Monumento diverso,Monuments/38 Stonehenge copy.jpg,16,36,5,74,312.574297166422,2,0.520362252233099
Stesso monumento?,1 = Stesso monumento \n2 = Monumento diverso,Monuments/12 Duomo di San Marco copy.jpg,16,37,5,74,315.09001428187,2,0.535538932106647
Stesso monumento?,1 = Stesso monumento \n2 = Monumento diverso,Monuments/15 Fontana di Trevi copy.jpg,16,38,5,74,317.605627886902,2,0.523134791519624
Stesso monumento?,1 = Stesso monumento \n2 = Monumento diverso,Monuments/10 Colosseo copy.jpg,16,39,5,74,320.121264161571,2,0.518411380329781
Stesso monumento?,1 = Stesso monumento \n2 = Monumento diverso,Monuments/31 Ponte di Rialto copy.jpg,16,40,5,74,322.636924816792,2,0.519904154489268
Quanto affidabile?,1 = Moltissimo\n2 = Molto\n3 = Poco\n4 = Pochissimo,People/Sandra Bullock/selected/im_12.jpg,4,33,5,75,337.514393721964,2,1.17995713300115
Quanto affidabile?,1 = Moltissimo\n2 = Molto\n3 = Poco\n4 = Pochissimo,People/Johnny Depp/selected/im_12.jpg,4,34,5,75,340.029923492115,2,0.843520911028463
Quanto affidabile?,1 = Moltissimo\n2 = Molto\n3 = Poco\n4 = Pochissimo,People/Giorgio Napolitano/selected/a_im_37.jpg,4,35,5,75,342.545607672431,3,1.24793011250404
Quanto affidabile?,1 = Moltissimo\n2 = Molto\n3 = Poco\n4 = Pochissimo,People/Silvio Berlusconi/selected/im_05.jpg,4,36,5,75,345.061271321754,4,0.833343955269811
Quanto affidabile?,1 = Moltissimo\n2 = Molto\n3 = Poco\n4 = Pochissimo,People/Brad Pitt/selected/im_11.jpg,4,37,5,75,347.576965767565,2,0.896725691840402
Quanto affidabile?,1 = Moltissimo\n2 = Molto\n3 = Poco\n4 = Pochissimo,People/Robin Williams/selected/im_25.jpg,4,38,5,75,350.092555847503,1,1.12231295304628
Quanto affidabile?,1 = Moltissimo\n2 = Molto\n3 = Poco\n4 = Pochissimo,People/Matteo Renzi/selected/im_72.jpg,4,39,5,75,352.608225912762,2,1.64766551935463
Quanto affidabile?,1 = Moltissimo\n2 = Molto\n3 = Poco\n4 = Pochissimo,People/Mike Tyson/selected/im_41.jpg,4,40,5,75,355.123886995712,3,1.99324188202445
Quanto attraente?,1 = Moltissimo\n2 = Molto\n3 = Poco\n4 = Pochissimo,People/Angelina Jolie/selected/im_29.jpg,2,33,5,76,370.017915428569,2,0.758516618769136
Quanto attraente?,1 = Moltissimo\n2 = Molto\n3 = Poco\n4 = Pochissimo,People/Sabrina Ferilli/selected/im_05.jpg,2,34,5,76,372.533614151669,2,0.583020699088593
Quanto attraente?,1 = Moltissimo\n2 = Molto\n3 = Poco\n4 = Pochissimo,People/Rihanna/selected/im_31.jpg,2,35,5,76,375.04928806649,2,0.519357516845048
Quanto attraente?,1 = Moltissimo\n2 = Molto\n3 = Poco\n4 = Pochissimo,People/Hillary Clinton/selected/im_14.jpg,2,36,5,76,377.564874724596,3,0.766942024331001
Quanto attraente?,1 = Moltissimo\n2 = Molto\n3 = Poco\n4 = Pochissimo,People/Paris Hilton/selected/im_13.jpg,2,37,5,76,380.080534524359,3,0.913289069087114
Quanto attraente?,1 = Moltissimo\n2 = Molto\n3 = Poco\n4 = Pochissimo,People/Donald Trump/selected/im_14.jpg,2,38,5,76,382.596154117597,4,0.837744431075407
Quanto attraente?,1 = Moltissimo\n2 = Molto\n3 = Poco\n4 = Pochissimo,People/Roberto Maroni/selected/im_30.jpg,2,39,5,76,385.111878076706,4,0.520106470299652
Quanto attraente?,1 = Moltissimo\n2 = Molto\n3 = Poco\n4 = Pochissimo,People/Britney Spears/selected/im_22.jpg,2,40,5,76,387.627602463546,3,1.40950858644464
Memoria remota?,1 = Moltissimo\n2 = Molto\n3 = Poco\n4 = Pochissimo,People/Michael Jackson/selected/im_33.jpg,1,33,5,77,402.521553049728,2,1.02016057801666
Memoria remota?,1 = Moltissimo\n2 = Molto\n3 = Poco\n4 = Pochissimo,People/Silvio Berlusconi/selected/Silvio Berlusconi_2.jpg,1,34,5,77,405.037152111976,2,1.62656008801059
Memoria remota?,1 = Moltissimo\n2 = Molto\n3 = Poco\n4 = Pochissimo,People/Paolo Bonolis/selected/im_06.jpg,1,35,5,77,407.552796513495,2,0.79006077601116
Memoria remota?,1 = Moltissimo\n2 = Molto\n3 = Poco\n4 = Pochissimo,People/George Clooney/selected/im_08 (1).jpg,1,36,5,77,410.06848924839,2,0.783369811488228
Memoria remota?,1 = Moltissimo\n2 = Molto\n3 = Poco\n4 = Pochissimo,People/Brad Pitt/selected/im_15.jpg,1,37,5,77,412.584128944891,2,0.667811982313651
Memoria remota?,1 = Moltissimo\n2 = Molto\n3 = Poco\n4 = Pochissimo,People/Matteo Salvini/selected/im_49.jpg,1,38,5,77,415.099793877402,2,1.83141618073205
Memoria remota?,1 = Moltissimo\n2 = Molto\n3 = Poco\n4 = Pochissimo,People/Barack Obama/selected/im_12.jpg,1,39,5,77,417.615421597489,2,0.777689570555594
Memoria remota?,1 = Moltissimo\n2 = Molto\n3 = Poco\n4 = Pochissimo,People/Laura Pausini/selected/im_36.jpg,1,40,5,77,420.13118362448,2,0.762019291432807
Stesso volto?,1 = Stesso volto\n2 = Volto diverso,People/Matt Damon/selected/im_10.jpg,12,33,5,78,435.025218045543,,
Stesso volto?,1 = Stesso volto\n2 = Volto diverso,People/Filippo Inzaghi/selected/im_01.jpg,12,34,5,78,437.54076278621,2,0.645039263381477
Stesso volto?,1 = Stesso volto\n2 = Volto diverso,People/Barack Obama/selected/im_03.jpg,12,35,5,78,440.056391361755,2,0.519496101036566
Stesso volto?,1 = Stesso volto\n2 = Volto diverso,People/Daniel Radcliffe/selected/im_02.jpg,12,36,5,78,442.572057149724,2,0.519953343320594
Stesso volto?,1 = Stesso volto\n2 = Volto diverso,People/Silvio Berlusconi/selected/im_01.jpg,12,37,5,78,445.087768704694,2,0.52029039376248
Stesso volto?,1 = Stesso volto\n2 = Volto diverso,People/Silvio Berlusconi/selected/im_01.jpg,12,38,5,78,447.603392147494,1,0.519760009819947
Stesso volto?,1 = Stesso volto\n2 = Volto diverso,People/Bill Clinton/selected/im_12.jpg,12,39,5,78,450.119048097697,2,0.712191003232874
Stesso volto?,1 = Stesso volto\n2 = Volto diverso,People/Bill Clinton/selected/im_12.jpg,12,40,5,78,452.634712174749,1,0.519606027386544
Stesso monumento?,1 = Stesso monumento \n2 = Monumento diverso,Monuments/32 Ponte vecchio copy.jpg,14,33,5,79,467.52872606482,,
Stesso monumento?,1 = Stesso monumento \n2 = Monumento diverso,Monuments/32 Ponte vecchio copy.jpg,14,34,5,79,470.044366616778,1,0.727620898667737
Stesso monumento?,1 = Stesso monumento \n2 = Monumento diverso,Monuments/21 Muraglia Cinese copy.jpg,14,35,5,79,472.560014440131,2,0.519996116221591
Stesso monumento?,1 = Stesso monumento \n2 = Monumento diverso,Monuments/3 Ara Pacis copy.jpg,14,36,5,79,475.075666540772,2,0.520426411580047
Stesso monumento?,1 = Stesso monumento \n2 = Monumento diverso,Monuments/3 Ara Pacis copy.jpg,14,37,5,79,477.591343449694,1,0.51984470016032
Stesso monumento?,1 = Stesso monumento \n2 = Monumento diverso,Monuments/1 Acropoli copy.jpg,14,38,5,79,480.107057143308,2,0.520311780213888
Stesso monumento?,1 = Stesso monumento \n2 = Monumento diverso,Monuments/45 White House copy.jpg,14,39,5,79,482.622737046333,2,0.519612871048594
Stesso monumento?,1 = Stesso monumento \n2 = Monumento diverso,Monuments/22 Notre Dame copy.jpg,14,40,5,79,485.138429781229,2,0.520023063147164
Stesso volto?,1 = Stesso volto\n2 = Volto diverso,People/Tom Cruise/selected/im_11.jpg,11,33,5,80,500.0157216066,,
Stesso volto?,1 = Stesso volto\n2 = Volto diverso,People/Donald Trump/selected/im_06.jpg,11,34,5,80,502.531321096576,2,0.51972493604444
Stesso volto?,1 = Stesso volto\n2 = Volto diverso,People/Paris Hilton/selected/im_14.jpg,11,35,5,80,505.046989450919,2,0.520144965908912
Stesso volto?,1 = Stesso volto\n2 = Volto diverso,People/Daniel Radcliffe/selected/im_21.jpg,11,36,5,80,507.562680474899,2,0.519637251602035
Stesso volto?,1 = Stesso volto\n2 = Volto diverso,People/Daniel Radcliffe/selected/im_21.jpg,11,37,5,80,510.078327442792,2,0.519982001165772
Stesso volto?,1 = Stesso volto\n2 = Volto diverso,People/Mike Tyson/selected/im_01.jpg,11,38,5,80,512.593944469656,2,0.526450974346517
Stesso volto?,1 = Stesso volto\n2 = Volto diverso,People/Britney Spears/selected/im_31.jpg,11,39,5,80,515.109655596898,2,0.519827163272566
Stesso volto?,1 = Stesso volto\n2 = Volto diverso,People/Matteo Salvini/selected/im_59.jpg,11,40,5,80,517.625262785994,2,0.527305576859362
