TaskName,taskIntruct,filepath,blockNum,trialnum,fmriRun,fmriBlock,time_presented,resp,RT
Quanto amichevole?,1 = Moltissimo\n2 = Molto\n3 = Poco\n4 = Pochissimo,People/Mike Tyson/selected/im_11.jpg,3,1,1,1,12.5281714208249,4,1.46945210676495
Quanto amichevole?,1 = Moltissimo\n2 = Molto\n3 = Poco\n4 = Pochissimo,People/Arnold Schwarzenegger/selected/im_05.jpg,3,2,1,1,15.043828293452,2,1.43407577422477
Quanto amichevole?,1 = Moltissimo\n2 = Molto\n3 = Poco\n4 = Pochissimo,People/Hillary Clinton/selected/im_14.jpg,3,3,1,1,17.5595403433581,2,1.25852863166074
Quanto amichevole?,1 = Moltissimo\n2 = Molto\n3 = Poco\n4 = Pochissimo,People/Justin Bieber/selected/im_08.jpg,3,4,1,1,20.0751407555181,4,1.20688484075072
Quanto amichevole?,1 = Moltissimo\n2 = Molto\n3 = Poco\n4 = Pochissimo,People/Rihanna/selected/im_28 (1).jpg,3,5,1,1,22.6075060769872,4,1.1356133381887
Quanto amichevole?,1 = Moltissimo\n2 = Molto\n3 = Poco\n4 = Pochissimo,People/Angelina Jolie/selected/im_46.jpg,3,6,1,1,25.1231526840747,1,0.959049907203735
Quanto amichevole?,1 = Moltissimo\n2 = Molto\n3 = Poco\n4 = Pochissimo,People/Britney Spears/selected/im_72.jpg,3,7,1,1,27.6388749995203,1,0.903526597798191
Quanto amichevole?,1 = Moltissimo\n2 = Molto\n3 = Poco\n4 = Pochissimo,People/Matt Damon/selected/im_21.jpg,3,8,1,1,30.1545053528389,3,1.18790813539817
Nome comune?,1 = Moltissimo\n2 = Molto\n3 = Poco\n4 = Pochissimo,People/Tom Cruise/selected/im_16.jpg,6,1,1,2,45.0152610077603,3,1.32872396349194
Nome comune?,1 = Moltissimo\n2 = Molto\n3 = Poco\n4 = Pochissimo,People/Angelina Jolie/selected/im_33.jpg,6,2,1,2,47.5309542375071,2,1.13213118162093
Nome comune?,1 = Moltissimo\n2 = Molto\n3 = Poco\n4 = Pochissimo,People/Silvio Berlusconi/selected/im_05.jpg,6,3,1,2,50.0465901513271,1,1.03859842877137
Nome comune?,1 = Moltissimo\n2 = Molto\n3 = Poco\n4 = Pochissimo,People/Sabrina Ferilli/selected/im_03.jpg,6,4,1,2,52.5622166550675,3,1.22220701401602
Nome comune?,1 = Moltissimo\n2 = Molto\n3 = Poco\n4 = Pochissimo,People/George Bush/selected/im_24.jpg,6,5,1,2,55.0779423923595,3,1.16744891503913
Nome comune?,1 = Moltissimo\n2 = Molto\n3 = Poco\n4 = Pochissimo,People/Michael Jackson/selected/im_28.jpg,6,6,1,2,57.5935958431401,4,1.11589323667795
Nome comune?,1 = Moltissimo\n2 = Molto\n3 = Poco\n4 = Pochissimo,People/Jim Carrey/selected/im_07.jpg,6,7,1,2,60.1092518603109,4,1.59935096125992
Nome comune?,1 = Moltissimo\n2 = Molto\n3 = Poco\n4 = Pochissimo,People/Paolo Bonolis/selected/im_06.jpg,6,8,1,2,62.6249228480556,1,0.965852110362903
Stesso volto?,1 = Stesso volto\n2 = Volto diverso,People/Barack Obama/selected/im_12.jpg,12,1,1,3,77.5190256805326,,
Stesso volto?,1 = Stesso volto\n2 = Volto diverso,People/Robin Williams/selected/im_13.jpg,12,2,1,3,80.034654322928,2,1.22771148187894
Stesso volto?,1 = Stesso volto\n2 = Volto diverso,People/Robin Williams/selected/im_13.jpg,12,3,1,3,82.5503287325191,1,0.914195059791382
Stesso volto?,1 = Stesso volto\n2 = Volto diverso,People/Donald Trump/selected/im_14.jpg,12,4,1,3,85.0659727732236,2,0.882641357547982
Stesso volto?,1 = Stesso volto\n2 = Volto diverso,People/Justin Bieber/selected/im_38.jpg,12,5,1,3,87.5816724189353,2,0.851035472143849
Stesso volto?,1 = Stesso volto\n2 = Volto diverso,People/Michael Jackson/selected/im_08.jpg,12,6,1,3,90.0973258697159,2,0.774519989783585
Stesso volto?,1 = Stesso volto\n2 = Volto diverso,People/Daniel Radcliffe/selected/im_16.jpg,12,7,1,3,92.6130058398085,1,0.978912443075387
Stesso volto?,1 = Stesso volto\n2 = Volto diverso,People/Giorgio Napolitano/selected/im_07.jpg,12,8,1,3,95.1286687006686,2,1.22629013237747
Volto distintivo?,1 = Moltissimo\n2 = Molto\n3 = Poco\n4 = Pochissimo,People/Rihanna/selected/im_07 (1).jpg,9,1,1,4,110.022716783602,1,1.29195322849046
Volto distintivo?,1 = Moltissimo\n2 = Molto\n3 = Poco\n4 = Pochissimo,People/Donald Trump/selected/im_58.jpg,9,2,1,4,112.538382638577,1,1.21836299717688
Volto distintivo?,1 = Moltissimo\n2 = Molto\n3 = Poco\n4 = Pochissimo,People/Paris Hilton/selected/im_13.jpg,9,3,1,4,115.054096399406,2,1.40263499291541
Volto distintivo?,1 = Moltissimo\n2 = Molto\n3 = Poco\n4 = Pochissimo,People/Justin Bieber/selected/im_32.jpg,9,4,1,4,117.569718198109,1,1.58110653106633
Volto distintivo?,1 = Moltissimo\n2 = Molto\n3 = Poco\n4 = Pochissimo,People/Cameron Diaz/selected/im_32.jpg,9,5,1,4,120.085369082506,3,1.16554294652451
Volto distintivo?,1 = Moltissimo\n2 = Molto\n3 = Poco\n4 = Pochissimo,People/George Clooney/selected/im_16.jpg,9,6,1,4,122.601108079452,3,0.970889923904906
Volto distintivo?,1 = Moltissimo\n2 = Molto\n3 = Poco\n4 = Pochissimo,People/Matteo Salvini/selected/im_71.jpg,9,7,1,4,125.116740143694,1,1.67440659834756
Volto distintivo?,1 = Moltissimo\n2 = Molto\n3 = Poco\n4 = Pochissimo,People/Angelino Alfano/selected/im_65.jpg,9,8,1,4,127.632390172628,1,1.33881926619506
Quanto familiare?,1 = Moltissimo\n2 = Molto\n3 = Poco\n4 = Pochissimo,People/Brad Pitt/selected/im_03.jpg,5,1,1,5,142.526483167298,3,1.10529406707428
Quanto familiare?,1 = Moltissimo\n2 = Molto\n3 = Poco\n4 = Pochissimo,People/Paolo Bonolis/selected/im_38.jpg,5,2,1,5,145.042145172694,1,0.809723091348133
Quanto familiare?,1 = Moltissimo\n2 = Molto\n3 = Poco\n4 = Pochissimo,People/Julia Roberts/selected/im_31.jpg,5,3,1,5,147.557789213399,2,0.974264292304724
Quanto familiare?,1 = Moltissimo\n2 = Molto\n3 = Poco\n4 = Pochissimo,People/Angelina Jolie/selected/im_30.jpg,5,4,1,5,150.073471322146,3,0.900585520710592
Quanto familiare?,1 = Moltissimo\n2 = Molto\n3 = Poco\n4 = Pochissimo,People/Rihanna/selected/im_13.jpg,5,5,1,5,152.589140598968,2,1.30504307462979
Quanto familiare?,1 = Moltissimo\n2 = Molto\n3 = Poco\n4 = Pochissimo,People/Sandra Bullock/selected/im_02.jpg,5,6,1,5,155.10479789933,3,1.1494803712194
Quanto familiare?,1 = Moltissimo\n2 = Molto\n3 = Poco\n4 = Pochissimo,People/Justin Bieber/selected/im_06.jpg,5,7,1,5,157.620476586231,1,1.11397828581903
Quanto familiare?,1 = Moltissimo\n2 = Molto\n3 = Poco\n4 = Pochissimo,People/Robin Williams/selected/im_13.jpg,5,8,1,5,160.136143724398,3,1.01831201166351
Stesso volto?,1 = Stesso volto\n2 = Volto diverso,People/Angelino Alfano/selected/im_73.jpg,13,1,1,6,175.013667282743,,
Stesso volto?,1 = Stesso volto\n2 = Volto diverso,People/Robin Williams/selected/im_85.jpg,13,2,1,6,177.529177015971,2,0.856011264717381
Stesso volto?,1 = Stesso volto\n2 = Volto diverso,People/Barack Obama/selected/im_03.jpg,13,3,1,6,180.044895481838,2,1.12034206488897
Stesso volto?,1 = Stesso volto\n2 = Volto diverso,People/Barack Obama/selected/im_03.jpg,13,4,1,6,182.56053781162,1,0.519778059035161
Stesso volto?,1 = Stesso volto\n2 = Volto diverso,People/Jim Carrey/selected/im_37.jpg,13,5,1,6,185.076180569133,2,0.89025026102172
Stesso volto?,1 = Stesso volto\n2 = Volto diverso,People/Giorgia Meloni/selected/im_24.jpg,13,6,1,6,187.591896468613,2,0.755720364992158
Stesso volto?,1 = Stesso volto\n2 = Volto diverso,People/Giorgia Meloni/selected/im_24.jpg,13,7,1,6,190.107510568159,1,0.679094100349175
Stesso volto?,1 = Stesso volto\n2 = Volto diverso,People/Donald Trump/selected/im_64.jpg,13,8,1,6,192.623214491177,2,0.963513278260507
Stesso monumento?,1 = Stesso monumento \n2 = Monumento diverso,Monuments/14 Empire State Building copy.jpg,16,1,1,7,207.517323311888,,
Stesso monumento?,1 = Stesso monumento \n2 = Monumento diverso,Monuments/29 Ponte dei Sospiri copy.jpg,16,2,1,7,210.032950671088,2,0.824438742318307
Stesso monumento?,1 = Stesso monumento \n2 = Monumento diverso,Monuments/41 Torre di Pisa copy.jpg,16,3,1,7,212.548734152038,2,0.928852539371292
Stesso monumento?,1 = Stesso monumento \n2 = Monumento diverso,Monuments/43 Tower Bridge copy.jpg,16,4,1,7,215.064281525581,2,0.855312352567125
Stesso monumento?,1 = Stesso monumento \n2 = Monumento diverso,Monuments/32 Ponte vecchio copy.jpg,16,5,1,7,217.579932409979,2,0.819758939469466
Stesso monumento?,1 = Stesso monumento \n2 = Monumento diverso,Monuments/27 Piazza San Pietro copy.jpg,16,6,1,7,220.09557473976,2,0.804206647022511
Stesso monumento?,1 = Stesso monumento \n2 = Monumento diverso,Monuments/10 Colosseo copy.jpg,16,7,1,7,222.61124872162,2,0.888708719161514
Stesso monumento?,1 = Stesso monumento \n2 = Monumento diverso,Monuments/10 Colosseo copy.jpg,16,8,1,7,225.126929119444,1,0.52003897483155
Memoria remota?,1 = Moltissimo\n2 = Molto\n3 = Poco\n4 = Pochissimo,People/Michelle Hunziker/selected/im_47.jpg,1,1,1,8,240.021064459463,1,1.39158285637677
Memoria remota?,1 = Moltissimo\n2 = Molto\n3 = Poco\n4 = Pochissimo,People/Matteo Renzi/selected/im_15.jpg,1,2,1,8,242.536687113625,1,1.38011496548643
Memoria remota?,1 = Moltissimo\n2 = Molto\n3 = Poco\n4 = Pochissimo,People/Michelle Obama/selected/im_15.jpg,1,3,1,8,245.052353396335,4,1.00441717612921
Memoria remota?,1 = Moltissimo\n2 = Molto\n3 = Poco\n4 = Pochissimo,People/Britney Spears/selected/im_31.jpg,1,4,1,8,247.568009413502,4,1.15286158331583
Memoria remota?,1 = Moltissimo\n2 = Molto\n3 = Poco\n4 = Pochissimo,People/George Clooney/selected/im_01.jpg,1,5,1,8,250.083679118055,2,1.51741270762795
Memoria remota?,1 = Moltissimo\n2 = Molto\n3 = Poco\n4 = Pochissimo,People/Mike Tyson/selected/im_41.jpg,1,6,1,8,252.599344117571,3,1.20173025669283
Memoria remota?,1 = Moltissimo\n2 = Molto\n3 = Poco\n4 = Pochissimo,People/Robin Williams/selected/im_25.jpg,1,7,1,8,255.115044618742,3,1.18611081051131
Memoria remota?,1 = Moltissimo\n2 = Molto\n3 = Poco\n4 = Pochissimo,People/Barack Obama/selected/im_12.jpg,1,8,1,8,257.630671550214,2,1.19369875517805
Quanti fatti ricordi?,1 = Moltissimo\n2 = Molto\n3 = Poco\n4 = Pochissimo,People/Justin Bieber/selected/im_06.jpg,7,1,1,9,272.524775238151,3,1.19904838448201
Quanti fatti ricordi?,1 = Moltissimo\n2 = Molto\n3 = Poco\n4 = Pochissimo,People/Johnny Depp/selected/im_16.jpg,7,2,1,9,275.040408585584,2,1.38358557332322
Quanti fatti ricordi?,1 = Moltissimo\n2 = Molto\n3 = Poco\n4 = Pochissimo,People/Michael Jackson/selected/im_33.jpg,7,3,1,9,277.55608941114,4,1.38811353173514
Quanti fatti ricordi?,1 = Moltissimo\n2 = Molto\n3 = Poco\n4 = Pochissimo,People/Angelino Alfano/selected/im_14.jpg,7,4,1,9,280.071758687962,1,1.47346978231508
Quanti fatti ricordi?,1 = Moltissimo\n2 = Molto\n3 = Poco\n4 = Pochissimo,People/Sabrina Ferilli/selected/im_05.jpg,7,5,1,9,282.587418554707,3,1.03687210720091
Quanti fatti ricordi?,1 = Moltissimo\n2 = Molto\n3 = Poco\n4 = Pochissimo,People/Matt Damon/selected/im_13.jpg,7,6,1,9,285.103102374378,3,1.10333206582436
Quanti fatti ricordi?,1 = Moltissimo\n2 = Molto\n3 = Poco\n4 = Pochissimo,People/Giorgia Meloni/selected/im_30.jpg,7,7,1,9,287.618751975584,3,1.18662451521959
Quanti fatti ricordi?,1 = Moltissimo\n2 = Molto\n3 = Poco\n4 = Pochissimo,People/Cameron Diaz/selected/im_29.jpg,7,8,1,9,290.134482845642,4,1.43213644270872
Quanto attraente?,1 = Moltissimo\n2 = Molto\n3 = Poco\n4 = Pochissimo,People/Michelle Obama/selected/im_28.jpg,2,1,1,10,305.011840016701,4,1.35931569913373
Quanto attraente?,1 = Moltissimo\n2 = Molto\n3 = Poco\n4 = Pochissimo,People/Silvio Berlusconi/selected/Silvio Berlusconi_6.jpg,2,2,1,10,307.52749218429,4,1.18379165403167
Quanto attraente?,1 = Moltissimo\n2 = Molto\n3 = Poco\n4 = Pochissimo,People/Donald Trump/selected/im_06.jpg,2,3,1,10,310.04315504515,4,1.3681547564338
Quanto attraente?,1 = Moltissimo\n2 = Molto\n3 = Poco\n4 = Pochissimo,People/Mike Tyson/selected/im_01.jpg,2,4,1,10,312.558793097622,3,1.21860552054932
Quanto attraente?,1 = Moltissimo\n2 = Molto\n3 = Poco\n4 = Pochissimo,People/Tom Cruise/selected/im_10.jpg,2,5,1,10,315.074487610564,3,1.00299753755462
Quanto attraente?,1 = Moltissimo\n2 = Molto\n3 = Poco\n4 = Pochissimo,People/Hillary Clinton/selected/im_09.jpg,2,6,1,10,317.590155176462,3,1.15042565632029
Quanto attraente?,1 = Moltissimo\n2 = Molto\n3 = Poco\n4 = Pochissimo,People/Bill Clinton/selected/im_12.jpg,2,7,1,10,320.1058052054,3,1.07786839492474
Quanto attraente?,1 = Moltissimo\n2 = Molto\n3 = Poco\n4 = Pochissimo,People/Justin Bieber/selected/im_31.jpg,2,8,1,10,322.621482609109,1,1.16731161344796
Stesso volto?,1 = Stesso volto\n2 = Volto diverso,People/Angelina Jolie/selected/im_46.jpg,11,1,1,11,337.515522992886,,
Stesso volto?,1 = Stesso volto\n2 = Volto diverso,People/Hillary Clinton/selected/im_14.jpg,11,2,1,11,340.031211517595,2,0.847234228389425
Stesso volto?,1 = Stesso volto\n2 = Volto diverso,People/Hillary Clinton/selected/im_14.jpg,11,3,1,11,342.546888065841,1,0.852728002977528
Stesso volto?,1 = Stesso volto\n2 = Volto diverso,People/Silvio Berlusconi/selected/Silvio Berlusconi_8.jpg,11,4,1,11,345.062569319125,2,0.956075467111077
Stesso volto?,1 = Stesso volto\n2 = Volto diverso,People/Silvio Berlusconi/selected/Silvio Berlusconi_8.jpg,11,5,1,11,347.578230041334,1,0.72056260289537
Stesso volto?,1 = Stesso volto\n2 = Volto diverso,People/George Clooney/selected/im_17.jpg,11,6,1,11,350.093890763539,2,0.824955013413273
Stesso volto?,1 = Stesso volto\n2 = Volto diverso,People/Sandra Bullock/selected/im_24.jpg,11,7,1,11,352.60954763617,2,0.519384118953894
Stesso volto?,1 = Stesso volto\n2 = Volto diverso,People/Brad Pitt/selected/im_10.jpg,11,8,1,11,355.12520536426,2,0.784782535236445
Sicuramente conoscere\n(nome e cognome)?,1 = Moltissimo\n2 = Molto\n3 = Poco\n4 = Pochissimo,People/Michelle Hunziker/selected/im_19.jpg,10,1,1,12,370.019409996668,1,0.872200876081479
Sicuramente conoscere\n(nome e cognome)?,1 = Moltissimo\n2 = Molto\n3 = Poco\n4 = Pochissimo,People/Donald Trump/selected/im_14.jpg,10,2,1,12,372.535017680253,1,0.856700766791619
Sicuramente conoscere\n(nome e cognome)?,1 = Moltissimo\n2 = Molto\n3 = Poco\n4 = Pochissimo,People/Justin Bieber/selected/im_31.jpg,10,3,1,12,375.05061552603,1,0.922190204193612
Sicuramente conoscere\n(nome e cognome)?,1 = Moltissimo\n2 = Molto\n3 = Poco\n4 = Pochissimo,People/Bill Gates/selected/im_16.jpg,10,4,1,12,377.566272398661,3,1.06873163698401
Sicuramente conoscere\n(nome e cognome)?,1 = Moltissimo\n2 = Molto\n3 = Poco\n4 = Pochissimo,People/Mike Tyson/selected/im_01.jpg,10,5,1,12,380.08198787041,3,0.993021999478515
Sicuramente conoscere\n(nome e cognome)?,1 = Moltissimo\n2 = Molto\n3 = Poco\n4 = Pochissimo,People/Filippo Inzaghi/selected/im_01.jpg,10,6,1,12,382.59760924138,1,0.997569205777836
Sicuramente conoscere\n(nome e cognome)?,1 = Moltissimo\n2 = Molto\n3 = Poco\n4 = Pochissimo,People/Julia Roberts/selected/im_09.jpg,10,7,1,12,385.113269535857,4,1.06293759535401
Sicuramente conoscere\n(nome e cognome)?,1 = Moltissimo\n2 = Molto\n3 = Poco\n4 = Pochissimo,People/Giorgio Napolitano/selected/im_41.jpg,10,8,1,12,387.628965331991,4,0.869415920740721
Stesso monumento?,1 = Stesso monumento \n2 = Monumento diverso,Monuments/22 Notre Dame copy.jpg,15,1,1,13,402.522999727538,,
Stesso monumento?,1 = Stesso monumento \n2 = Monumento diverso,Monuments/22 Notre Dame copy.jpg,15,2,1,13,405.038695523668,1,0.815283591946354
Stesso monumento?,1 = Stesso monumento \n2 = Monumento diverso,Monuments/12 Duomo di San Marco copy.jpg,15,3,1,13,407.554346835797,2,0.998736055440531
Stesso monumento?,1 = Stesso monumento \n2 = Monumento diverso,Monuments/12 Duomo di San Marco copy.jpg,15,4,1,13,410.070032794123,1,1.00414813344833
Stesso monumento?,1 = Stesso monumento \n2 = Monumento diverso,Monuments/12 Duomo di San Marco copy.jpg,15,5,1,13,412.585668280211,1,0.928607021887728
Stesso monumento?,1 = Stesso monumento \n2 = Monumento diverso,Monuments/32 Ponte vecchio copy.jpg,15,6,1,13,415.10142951916,2,0.752934981923318
Stesso monumento?,1 = Stesso monumento \n2 = Monumento diverso,Monuments/4 Arco di Costantino copy.jpg,15,7,1,13,417.617020093512,2,0.838504242445197
Stesso monumento?,1 = Stesso monumento \n2 = Monumento diverso,Monuments/10 Colosseo copy.jpg,15,8,1,13,420.132673972024,2,0.821888183465489
Quanto affidabile?,1 = Moltissimo\n2 = Molto\n3 = Poco\n4 = Pochissimo,People/Paolo Bonolis/selected/im_22.jpg,4,1,1,14,435.026868766625,2,1.11027071510762
Quanto affidabile?,1 = Moltissimo\n2 = Molto\n3 = Poco\n4 = Pochissimo,People/Tom Cruise/selected/im_01.jpg,4,2,1,14,437.542478161136,2,0.99484113863582
Quanto affidabile?,1 = Moltissimo\n2 = Molto\n3 = Poco\n4 = Pochissimo,People/Angelino Alfano/selected/im_14.jpg,4,3,1,14,440.058086272453,4,0.720239238402428
Quanto affidabile?,1 = Moltissimo\n2 = Molto\n3 = Poco\n4 = Pochissimo,People/Bill Gates/selected/im_17.jpg,4,4,1,14,442.573734590464,4,0.823703473044588
Quanto affidabile?,1 = Moltissimo\n2 = Molto\n3 = Poco\n4 = Pochissimo,People/Britney Spears/selected/im_30 (1).jpg,4,5,1,14,445.089417126943,2,1.0881219580333
Quanto affidabile?,1 = Moltissimo\n2 = Molto\n3 = Poco\n4 = Pochissimo,People/Fiorello/selected/im_35.jpg,4,6,1,14,447.605064161762,4,1.01257186412477
Quanto affidabile?,1 = Moltissimo\n2 = Molto\n3 = Poco\n4 = Pochissimo,People/Robin Williams/selected/im_26.jpg,4,7,1,14,450.120733866315,3,1.35701450734632
Quanto affidabile?,1 = Moltissimo\n2 = Molto\n3 = Poco\n4 = Pochissimo,People/Cameron Diaz/selected/im_79.jpg,4,8,1,14,452.636393733061,1,1.26446425218455
Stesso monumento?,1 = Stesso monumento \n2 = Monumento diverso,Monuments/26 Piazza San Marco  copy.jpg,14,1,1,15,467.513902320825,,
Stesso monumento?,1 = Stesso monumento \n2 = Monumento diverso,Monuments/44 Versailles copy.jpg,14,2,1,15,470.046129057508,2,0.808372745163069
Stesso monumento?,1 = Stesso monumento \n2 = Monumento diverso,Monuments/27 Piazza San Pietro copy.jpg,14,3,1,15,472.561802183907,2,0.832854773838335
Stesso monumento?,1 = Stesso monumento \n2 = Monumento diverso,Monuments/11 Duomo di Milano copy.jpg,14,4,1,15,475.077551874125,2,0.698226499720477
Stesso monumento?,1 = Stesso monumento \n2 = Monumento diverso,Monuments/32 Ponte vecchio copy.jpg,14,5,1,15,477.593147581247,2,0.764650528955826
Stesso monumento?,1 = Stesso monumento \n2 = Monumento diverso,Monuments/22 Notre Dame copy.jpg,14,6,1,15,480.10882241857,2,0.520059505910467
Stesso monumento?,1 = Stesso monumento \n2 = Monumento diverso,Monuments/22 Notre Dame copy.jpg,14,7,1,15,482.624481002124,1,0.685507923928526
Stesso monumento?,1 = Stesso monumento \n2 = Monumento diverso,Monuments/23 Palazzo vecchio copy.jpg,14,8,1,15,485.14015327306,2,0.768937247183203
Che lavoro fa?,1 = Presentatore TV/attore\n2 = Cantante/Musicista\n3 = Politico/Sportivo\n4 = Altro/Non so,People/Donald Trump/selected/im_57.jpg,8,1,1,16,500.017657583518,1,1.45212088185872
Che lavoro fa?,1 = Presentatore TV/attore\n2 = Cantante/Musicista\n3 = Politico/Sportivo\n4 = Altro/Non so,People/Romano Prodi/selected/im_17.jpg,8,2,1,16,502.533231476369,2,1.39756082224994
Che lavoro fa?,1 = Presentatore TV/attore\n2 = Cantante/Musicista\n3 = Politico/Sportivo\n4 = Altro/Non so,People/Angelina Jolie/selected/im_15.jpg,8,3,1,16,505.048884499422,4,1.02407953398142
Che lavoro fa?,1 = Presentatore TV/attore\n2 = Cantante/Musicista\n3 = Politico/Sportivo\n4 = Altro/Non so,People/Mike Tyson/selected/im_41.jpg,8,4,1,16,507.564590988826,2,1.20738058076677
Che lavoro fa?,1 = Presentatore TV/attore\n2 = Cantante/Musicista\n3 = Politico/Sportivo\n4 = Altro/Non so,People/Julia Roberts/selected/im_104.jpg,8,5,1,16,510.080180707715,2,0.972876733536395
Che lavoro fa?,1 = Presentatore TV/attore\n2 = Cantante/Musicista\n3 = Politico/Sportivo\n4 = Altro/Non so,People/Tom Cruise/selected/im_06.jpg,8,6,1,16,512.595867949232,3,1.23830166913467
Che lavoro fa?,1 = Presentatore TV/attore\n2 = Cantante/Musicista\n3 = Politico/Sportivo\n4 = Altro/Non so,People/Matteo Salvini/selected/im_31.jpg,8,7,1,16,515.111552624367,1,1.42282773697298
Che lavoro fa?,1 = Presentatore TV/attore\n2 = Cantante/Musicista\n3 = Politico/Sportivo\n4 = Altro/Non so,People/Paolo Bonolis/selected/im_16.jpg,8,8,1,16,517.627206930611,2,1.16715763035609
Stesso monumento?,1 = Stesso monumento \n2 = Monumento diverso,Monuments/28 Piramidi di Ghiza copy.jpg,14,9,2,17,12.5282039283629,,
Stesso monumento?,1 = Stesso monumento \n2 = Monumento diverso,Monuments/28 Piramidi di Ghiza copy.jpg,14,10,2,17,15.0437521573658,1,0.521260146306304
Stesso monumento?,1 = Stesso monumento \n2 = Monumento diverso,Monuments/28 Piramidi di Ghiza copy.jpg,14,11,2,17,17.5594680568465,1,0.753819529247266
Stesso monumento?,1 = Stesso monumento \n2 = Monumento diverso,Monuments/41 Torre di Pisa copy.jpg,14,12,2,17,20.0751215076307,2,0.818182751412678
Stesso monumento?,1 = Stesso monumento \n2 = Monumento diverso,Monuments/34 San Pietro copy.jpg,14,13,2,17,22.5908211533424,2,0.783673856964015
Stesso monumento?,1 = Stesso monumento \n2 = Monumento diverso,Monuments/16 Golden Gate copy.jpg,14,14,2,17,25.1064921410871,2,0.907013887139328
Stesso monumento?,1 = Stesso monumento \n2 = Monumento diverso,Monuments/16 Golden Gate copy.jpg,14,15,2,17,27.6220887036725,1,0.771523735424125
Stesso monumento?,1 = Stesso monumento \n2 = Monumento diverso,Monuments/15 Fontana di Trevi copy.jpg,14,16,2,17,30.137864057735,2,0.795823550775822
Sicuramente conoscere\n(nome e cognome)?,1 = Moltissimo\n2 = Molto\n3 = Poco\n4 = Pochissimo,People/Jim Carrey/selected/im_16.jpg,10,9,2,18,45.0152015531748,2,0.979061721129256
Sicuramente conoscere\n(nome e cognome)?,1 = Moltissimo\n2 = Molto\n3 = Poco\n4 = Pochissimo,People/George Clooney/selected/im_01.jpg,10,10,2,18,47.5308224964174,1,1.06357363107963
Sicuramente conoscere\n(nome e cognome)?,1 = Moltissimo\n2 = Molto\n3 = Poco\n4 = Pochissimo,People/George Bush/selected/im_24.jpg,10,11,2,18,50.0465247085122,3,1.10797037878729
Sicuramente conoscere\n(nome e cognome)?,1 = Moltissimo\n2 = Molto\n3 = Poco\n4 = Pochissimo,People/Matteo Salvini/selected/im_11.jpg,10,12,2,18,52.5622136609527,1,0.79233968328117
Sicuramente conoscere\n(nome e cognome)?,1 = Moltissimo\n2 = Molto\n3 = Poco\n4 = Pochissimo,People/Michael Jackson/selected/im_50.jpg,10,13,2,18,55.0778611235037,4,0.896806518958329
Sicuramente conoscere\n(nome e cognome)?,1 = Moltissimo\n2 = Molto\n3 = Poco\n4 = Pochissimo,People/Paris Hilton/selected/im_39.jpg,10,14,2,18,57.593562480135,2,0.983223114231805
Sicuramente conoscere\n(nome e cognome)?,1 = Moltissimo\n2 = Molto\n3 = Poco\n4 = Pochissimo,People/Matt Damon/selected/im_09.jpg,10,15,2,18,60.1091859897606,4,0.987681352518848
Sicuramente conoscere\n(nome e cognome)?,1 = Moltissimo\n2 = Molto\n3 = Poco\n4 = Pochissimo,People/Daniel Radcliffe/selected/im_21.jpg,10,16,2,18,62.6248800749709,4,0.832092985256168
Quanti fatti ricordi?,1 = Moltissimo\n2 = Molto\n3 = Poco\n4 = Pochissimo,People/Silvio Berlusconi/selected/im_08.jpg,7,9,2,19,77.5189816242564,1,0.940552688094613
Quanti fatti ricordi?,1 = Moltissimo\n2 = Molto\n3 = Poco\n4 = Pochissimo,People/Sandra Bullock/selected/im_24.jpg,7,10,2,19,80.0345940128791,2,1.18525534887885
Quanti fatti ricordi?,1 = Moltissimo\n2 = Molto\n3 = Poco\n4 = Pochissimo,People/Roberto Maroni/selected/im_36.jpg,7,11,2,19,82.5502859594344,4,0.969557970143796
Quanti fatti ricordi?,1 = Moltissimo\n2 = Molto\n3 = Poco\n4 = Pochissimo,People/Hillary Clinton/selected/im_10.jpg,7,12,2,19,85.0659300001389,4,1.17493206565268
Quanti fatti ricordi?,1 = Moltissimo\n2 = Molto\n3 = Poco\n4 = Pochissimo,People/Matteo Salvini/selected/im_71.jpg,7,13,2,19,87.5815663416906,1,1.24254604201633
Quanti fatti ricordi?,1 = Moltissimo\n2 = Molto\n3 = Poco\n4 = Pochissimo,People/Rihanna/selected/im_02 (1).jpg,7,14,2,19,90.097251444553,4,0.946787720189604
Quanti fatti ricordi?,1 = Moltissimo\n2 = Molto\n3 = Poco\n4 = Pochissimo,People/Fiorello/selected/im_18.jpg,7,15,2,19,92.6129177272596,4,1.1712317663696
Quanti fatti ricordi?,1 = Moltissimo\n2 = Molto\n3 = Poco\n4 = Pochissimo,People/Michelle Hunziker/selected/im_05.jpg,7,16,2,19,95.1285763108135,2,1.15773129864465
Nome comune?,1 = Moltissimo\n2 = Molto\n3 = Poco\n4 = Pochissimo,People/Britney Spears/selected/im_23.jpg,6,9,2,20,110.022760412143,1,1.2261087745137
Nome comune?,1 = Moltissimo\n2 = Molto\n3 = Poco\n4 = Pochissimo,People/Paris Hilton/selected/im_16.jpg,6,10,2,20,112.538322328532,3,0.870658478757832
Nome comune?,1 = Moltissimo\n2 = Molto\n3 = Poco\n4 = Pochissimo,People/Michelle Obama/selected/im_42.jpg,6,11,2,20,115.053999304509,4,0.918017262360081
Nome comune?,1 = Moltissimo\n2 = Molto\n3 = Poco\n4 = Pochissimo,People/Matteo Renzi/selected/im_14.jpg,6,12,2,20,117.569655321677,1,0.80350944579186
Nome comune?,1 = Moltissimo\n2 = Molto\n3 = Poco\n4 = Pochissimo,People/Angelino Alfano/selected/im_73.jpg,6,13,2,20,120.085293374148,1,0.867950087234931
Nome comune?,1 = Moltissimo\n2 = Molto\n3 = Poco\n4 = Pochissimo,People/Giorgia Meloni/selected/im_17.jpg,6,14,2,20,122.601000291284,4,0.912310905554477
Nome comune?,1 = Moltissimo\n2 = Molto\n3 = Poco\n4 = Pochissimo,People/Matteo Salvini/selected/im_14.jpg,6,15,2,20,125.116640054679,1,0.816833260691055
Nome comune?,1 = Moltissimo\n2 = Molto\n3 = Poco\n4 = Pochissimo,People/Donald Trump/selected/im_24.jpg,6,16,2,20,127.63232900712,1,0.941258871669561
Quanto amichevole?,1 = Moltissimo\n2 = Molto\n3 = Poco\n4 = Pochissimo,People/Daniel Radcliffe/selected/im_12.jpg,3,9,2,21,142.526353137127,4,0.96771573352089
Quanto amichevole?,1 = Moltissimo\n2 = Molto\n3 = Poco\n4 = Pochissimo,People/Julia Roberts/selected/im_19.jpg,3,10,2,21,145.042111809689,3,1.37218398071127
Quanto amichevole?,1 = Moltissimo\n2 = Molto\n3 = Poco\n4 = Pochissimo,People/Robin Williams/selected/im_04.jpg,3,11,2,21,147.557773387358,2,0.838579095343448
Quanto amichevole?,1 = Moltissimo\n2 = Molto\n3 = Poco\n4 = Pochissimo,People/Matteo Salvini/selected/im_77.jpg,3,12,2,21,150.073424699487,2,1.04794776893323
Quanto amichevole?,1 = Moltissimo\n2 = Molto\n3 = Poco\n4 = Pochissimo,People/Barack Obama/selected/im_06.jpg,3,13,2,21,152.589069595651,2,0.952419224104233
Quanto amichevole?,1 = Moltissimo\n2 = Molto\n3 = Poco\n4 = Pochissimo,People/Cameron Diaz/selected/im_10.jpg,3,14,2,21,155.104720480049,2,0.957846700417576
Quanto amichevole?,1 = Moltissimo\n2 = Molto\n3 = Poco\n4 = Pochissimo,People/Bill Clinton/selected/im_27.jpg,3,15,2,21,157.62053518535,2,0.941251600248506
Quanto amichevole?,1 = Moltissimo\n2 = Molto\n3 = Poco\n4 = Pochissimo,People/Roberto Maroni/selected/im_16.jpg,3,16,2,21,160.136040641271,3,0.925728821228404
Stesso monumento?,1 = Stesso monumento \n2 = Monumento diverso,Monuments/35 Santa Maria del Fiore copy.jpg,16,9,2,22,175.013514155107,,
Stesso monumento?,1 = Stesso monumento \n2 = Monumento diverso,Monuments/35 Santa Maria del Fiore copy.jpg,16,10,2,22,177.529136809273,1,0.520287914168875
Stesso monumento?,1 = Stesso monumento \n2 = Monumento diverso,Monuments/25 Piazza di Spagna copy.jpg,16,11,2,22,180.044795820555,2,1.53892628444373
Stesso monumento?,1 = Stesso monumento \n2 = Monumento diverso,Monuments/18 Louvre copy.jpg,16,12,2,22,182.560424890682,2,0.927217324468074
Stesso monumento?,1 = Stesso monumento \n2 = Monumento diverso,Monuments/12 Duomo di San Marco copy.jpg,16,13,2,22,185.076129241432,2,0.972612395897158
Stesso monumento?,1 = Stesso monumento \n2 = Monumento diverso,Monuments/17 House of Parliament copy.jpg,16,14,2,22,187.591767721635,2,0.897061874256906
Stesso monumento?,1 = Stesso monumento \n2 = Monumento diverso,Monuments/17 House of Parliament copy.jpg,16,15,2,22,190.107459240462,1,0.662452805252542
Stesso monumento?,1 = Stesso monumento \n2 = Monumento diverso,Monuments/3 Ara Pacis copy.jpg,16,16,2,22,192.623146054248,2,0.846961336126697
Quanto affidabile?,1 = Moltissimo\n2 = Molto\n3 = Poco\n4 = Pochissimo,People/Michael Jackson/selected/im_06.jpg,4,9,2,23,207.517290804342,4,0.873363020706165
Quanto affidabile?,1 = Moltissimo\n2 = Molto\n3 = Poco\n4 = Pochissimo,People/George Bush/selected/im_03.jpg,4,10,2,23,210.032855287114,3,0.799848070011649
Quanto affidabile?,1 = Moltissimo\n2 = Molto\n3 = Poco\n4 = Pochissimo,People/Barack Obama/selected/im_03.jpg,4,11,2,23,212.548535684939,2,1.02532979115131
Quanto affidabile?,1 = Moltissimo\n2 = Molto\n3 = Poco\n4 = Pochissimo,People/Hillary Clinton/selected/im_18.jpg,4,12,2,23,215.064213944108,4,0.92762195782052
Quanto affidabile?,1 = Moltissimo\n2 = Molto\n3 = Poco\n4 = Pochissimo,People/Sandra Bullock/selected/im_08.jpg,4,13,2,23,217.579865256237,1,0.893220423804451
Quanto affidabile?,1 = Moltissimo\n2 = Molto\n3 = Poco\n4 = Pochissimo,People/Laura Pausini/selected/im_36.jpg,4,14,2,23,220.095548648176,3,0.940555682209379
Quanto affidabile?,1 = Moltissimo\n2 = Molto\n3 = Poco\n4 = Pochissimo,People/Paris Hilton/selected/im_01.jpg,4,15,2,23,222.611174296457,4,0.864142427519255
Quanto affidabile?,1 = Moltissimo\n2 = Molto\n3 = Poco\n4 = Pochissimo,People/Mike Tyson/selected/im_10.jpg,4,16,2,23,225.126839295972,4,1.03044673489421
Quanto attraente?,1 = Moltissimo\n2 = Molto\n3 = Poco\n4 = Pochissimo,People/Michael Jackson/selected/im_08.jpg,2,9,2,24,240.020928441063,4,1.03792518046976
Quanto attraente?,1 = Moltissimo\n2 = Molto\n3 = Poco\n4 = Pochissimo,People/Laura Pausini/selected/im_17.jpg,2,10,2,24,242.536612260734,4,0.901452958805748
Quanto attraente?,1 = Moltissimo\n2 = Molto\n3 = Poco\n4 = Pochissimo,People/Sandra Bullock/selected/im_05.jpg,2,11,2,24,245.052249457745,3,0.865813144082495
Quanto attraente?,1 = Moltissimo\n2 = Molto\n3 = Poco\n4 = Pochissimo,People/Michelle Hunziker/selected/im_12.jpg,2,12,2,24,247.567882377447,1,1.05140383392427
Quanto attraente?,1 = Moltissimo\n2 = Molto\n3 = Poco\n4 = Pochissimo,People/Angelino Alfano/selected/im_12.jpg,2,13,2,24,250.083591005503,4,0.975667677110323
Quanto attraente?,1 = Moltissimo\n2 = Molto\n3 = Poco\n4 = Pochissimo,People/Angelina Jolie/selected/im_14.jpg,2,14,2,24,252.599260282328,4,0.921100773808575
Quanto attraente?,1 = Moltissimo\n2 = Molto\n3 = Poco\n4 = Pochissimo,People/Arnold Schwarzenegger/selected/im_01.jpg,2,15,2,24,255.114903039841,3,0.84853923510309
Quanto attraente?,1 = Moltissimo\n2 = Molto\n3 = Poco\n4 = Pochissimo,People/Barack Obama/selected/im_16.jpg,2,16,2,24,257.630588142703,3,1.03197458936847
Che lavoro fa?,1 = Presentatore TV/attore\n2 = Cantante/Musicista\n3 = Politico/Sportivo\n4 = Altro/Non so,People/George Bush/selected/im_85.jpg,8,9,2,25,272.524661461754,3,1.0785493423864
Che lavoro fa?,1 = Presentatore TV/attore\n2 = Cantante/Musicista\n3 = Politico/Sportivo\n4 = Altro/Non so,People/Daniel Radcliffe/selected/im_56.jpg,8,10,2,25,275.040314484802,2,1.40601021677867
Che lavoro fa?,1 = Presentatore TV/attore\n2 = Cantante/Musicista\n3 = Politico/Sportivo\n4 = Altro/Non so,People/Johnny Depp/selected/im_16.jpg,8,11,2,25,277.55599573809,1,1.4313532675842
Che lavoro fa?,1 = Presentatore TV/attore\n2 = Cantante/Musicista\n3 = Politico/Sportivo\n4 = Altro/Non so,People/Silvio Berlusconi/selected/im_05.jpg,8,12,2,25,280.071656032564,2,1.33879189141953
Che lavoro fa?,1 = Presentatore TV/attore\n2 = Cantante/Musicista\n3 = Politico/Sportivo\n4 = Altro/Non so,People/Bill Gates/selected/im_23.jpg,8,13,2,25,282.587356533739,4,1.2023145369858
Che lavoro fa?,1 = Presentatore TV/attore\n2 = Cantante/Musicista\n3 = Politico/Sportivo\n4 = Altro/Non so,People/Britney Spears/selected/im_24.jpg,8,14,2,25,285.102988597981,4,1.3896495130939
Che lavoro fa?,1 = Presentatore TV/attore\n2 = Cantante/Musicista\n3 = Politico/Sportivo\n4 = Altro/Non so,People/Hillary Clinton/selected/im_31.jpg,8,15,2,25,287.61868439411,2,1.17505824624459
Che lavoro fa?,1 = Presentatore TV/attore\n2 = Cantante/Musicista\n3 = Politico/Sportivo\n4 = Altro/Non so,People/Angelino Alfano/selected/im_12.jpg,8,16,2,25,290.134304909621,2,1.22157953291025
Stesso volto?,1 = Stesso volto\n2 = Volto diverso,People/Sandra Bullock/selected/im_04.jpg,13,9,2,26,305.028423140408,,
Stesso volto?,1 = Stesso volto\n2 = Volto diverso,People/Sandra Bullock/selected/im_04.jpg,13,10,2,26,307.544031679456,1,0.519443573535682
Stesso volto?,1 = Stesso volto\n2 = Volto diverso,People/Sandra Bullock/selected/im_04.jpg,13,11,2,26,310.059724053743,1,0.676860917767044
Stesso volto?,1 = Stesso volto\n2 = Volto diverso,People/George Clooney/selected/im_15.jpg,13,12,2,26,312.575358256636,2,0.643349919308093
Stesso volto?,1 = Stesso volto\n2 = Volto diverso,People/Angelina Jolie/selected/im_22.jpg,13,13,2,26,315.091052341846,2,0.750724469067791
Stesso volto?,1 = Stesso volto\n2 = Volto diverso,People/Matteo Renzi/selected/im_16.jpg,13,14,2,26,317.606751987558,2,0.555106913456257
Stesso volto?,1 = Stesso volto\n2 = Volto diverso,People/Giorgio Napolitano/selected/im_41.jpg,13,15,2,26,320.122363948452,2,0.519714327143447
Stesso volto?,1 = Stesso volto\n2 = Volto diverso,People/Giorgio Napolitano/selected/im_41.jpg,13,16,2,26,322.638046484928,1,0.835032779148605
Stesso volto?,1 = Stesso volto\n2 = Volto diverso,People/Giorgio Napolitano/selected/im_07.jpg,12,9,2,27,337.515510588688,,
Stesso volto?,1 = Stesso volto\n2 = Volto diverso,People/Giorgio Napolitano/selected/im_07.jpg,12,10,2,27,340.031131104199,1,0.816613834784221
Stesso volto?,1 = Stesso volto\n2 = Volto diverso,People/Fiorello/selected/im_35.jpg,12,11,2,27,342.546830322179,2,0.821079344492318
Stesso volto?,1 = Stesso volto\n2 = Volto diverso,People/Britney Spears/selected/im_23.jpg,12,12,2,27,345.062458109114,2,0.765491875466978
Stesso volto?,1 = Stesso volto\n2 = Volto diverso,People/Matteo Renzi/selected/im_14.jpg,12,13,2,27,347.578124391821,2,0.789991441106395
Stesso volto?,1 = Stesso volto\n2 = Volto diverso,People/Bill Gates/selected/im_09.jpg,12,14,2,27,350.093788963604,2,0.696355605134158
Stesso volto?,1 = Stesso volto\n2 = Volto diverso,People/Bill Gates/selected/im_09.jpg,12,15,2,27,352.609462517736,1,0.801851561151125
Stesso volto?,1 = Stesso volto\n2 = Volto diverso,People/Arnold Schwarzenegger/selected/im_12.jpg,12,16,2,27,355.125105275245,2,0.708235828529723
Stesso volto?,1 = Stesso volto\n2 = Volto diverso,People/Brad Pitt/selected/im_10.jpg,11,9,2,28,370.01917987749,,
Stesso volto?,1 = Stesso volto\n2 = Volto diverso,People/Brad Pitt/selected/im_10.jpg,11,10,2,28,372.534890644201,1,0.52011724957265
Stesso volto?,1 = Stesso volto\n2 = Volto diverso,People/Bill Clinton/selected/im_16.jpg,11,11,2,28,375.050480790822,2,0.87262432958596
Stesso volto?,1 = Stesso volto\n2 = Volto diverso,People/Michelle Hunziker/selected/im_24.jpg,11,12,2,28,377.566183430648,2,0.737027672901604
Stesso volto?,1 = Stesso volto\n2 = Volto diverso,People/Cameron Diaz/selected/im_32.jpg,11,13,2,28,380.081880937705,2,0.581406798097305
Stesso volto?,1 = Stesso volto\n2 = Volto diverso,People/Mike Tyson/selected/im_11.jpg,11,14,2,28,382.597490759945,2,0.565896851003345
Stesso volto?,1 = Stesso volto\n2 = Volto diverso,People/Rihanna/selected/im_08 (1).jpg,11,15,2,28,385.113180995577,2,0.530319912708364
Stesso volto?,1 = Stesso volto\n2 = Volto diverso,People/Rihanna/selected/im_08 (1).jpg,11,16,2,28,387.62882375309,1,0.654842190855561
Memoria remota?,1 = Moltissimo\n2 = Molto\n3 = Poco\n4 = Pochissimo,People/Matt Damon/selected/im_10.jpg,1,9,2,29,402.523016836767,4,1.10118229074578
Memoria remota?,1 = Moltissimo\n2 = Molto\n3 = Poco\n4 = Pochissimo,People/Giorgia Meloni/selected/im_30.jpg,1,10,2,29,405.038578753156,3,1.20774201330278
Memoria remota?,1 = Moltissimo\n2 = Molto\n3 = Poco\n4 = Pochissimo,People/Angelino Alfano/selected/im_65.jpg,1,11,2,29,407.554251879556,2,1.07514246644132
Memoria remota?,1 = Moltissimo\n2 = Molto\n3 = Poco\n4 = Pochissimo,People/Paris Hilton/selected/im_48.jpg,1,12,2,29,410.069914740416,3,1.0405792501806
Memoria remota?,1 = Moltissimo\n2 = Molto\n3 = Poco\n4 = Pochissimo,People/Brad Pitt/selected/im_15.jpg,1,13,2,29,412.585592144125,3,1.34500596470752
Memoria remota?,1 = Moltissimo\n2 = Molto\n3 = Poco\n4 = Pochissimo,People/Rihanna/selected/im_31.jpg,1,14,2,29,415.101208382326,1,0.932459593339445
Memoria remota?,1 = Moltissimo\n2 = Molto\n3 = Poco\n4 = Pochissimo,People/Tom Cruise/selected/im_13.jpg,1,15,2,29,417.616918293577,2,1.17903015459524
Memoria remota?,1 = Moltissimo\n2 = Molto\n3 = Poco\n4 = Pochissimo,People/George Bush/selected/im_15.jpg,1,16,2,29,420.132540947739,4,1.10338809855966
Volto distintivo?,1 = Moltissimo\n2 = Molto\n3 = Poco\n4 = Pochissimo,People/Romano Prodi/selected/im_05.jpg,9,9,2,30,435.026645918872,2,1.33189815386868
Volto distintivo?,1 = Moltissimo\n2 = Molto\n3 = Poco\n4 = Pochissimo,People/Filippo Inzaghi/selected/im_09.jpg,9,10,2,30,437.54227199488,2,1.1352895459604
Volto distintivo?,1 = Moltissimo\n2 = Molto\n3 = Poco\n4 = Pochissimo,People/Matt Damon/selected/im_19.jpg,9,11,2,30,440.057983617055,3,1.04070500303715
Volto distintivo?,1 = Moltissimo\n2 = Molto\n3 = Poco\n4 = Pochissimo,People/Tom Cruise/selected/im_05.jpg,9,12,2,30,442.5736434838,4,1.46425774374438
Volto distintivo?,1 = Moltissimo\n2 = Molto\n3 = Poco\n4 = Pochissimo,People/Sabrina Ferilli/selected/im_14.jpg,9,13,2,30,445.0893332917,4,1.14856759366012
Volto distintivo?,1 = Moltissimo\n2 = Molto\n3 = Poco\n4 = Pochissimo,People/Brad Pitt/selected/im_10.jpg,9,14,2,30,447.605141581036,1,1.43595265704062
Volto distintivo?,1 = Moltissimo\n2 = Molto\n3 = Poco\n4 = Pochissimo,People/Michelle Hunziker/selected/im_24.jpg,9,15,2,30,450.120628216802,1,0.900412717466679
Volto distintivo?,1 = Moltissimo\n2 = Molto\n3 = Poco\n4 = Pochissimo,People/Michael Jackson/selected/im_28.jpg,9,16,2,30,452.636288511279,3,0.887835720568546
Stesso monumento?,1 = Stesso monumento \n2 = Monumento diverso,Monuments/27 Piazza San Pietro copy.jpg,15,9,2,31,467.513813780544,2,1.77006132376482
Stesso monumento?,1 = Stesso monumento \n2 = Monumento diverso,Monuments/27 Piazza San Pietro copy.jpg,15,10,2,31,470.029349177621,1,0.915458148891048
Stesso monumento?,1 = Stesso monumento \n2 = Monumento diverso,Monuments/28 Piramidi di Ghiza copy.jpg,15,11,2,31,472.545056094757,2,1.10086405901893
Stesso monumento?,1 = Stesso monumento \n2 = Monumento diverso,Monuments/28 Piramidi di Ghiza copy.jpg,15,12,2,31,475.060716816963,1,0.88528173987288
Stesso monumento?,1 = Stesso monumento \n2 = Monumento diverso,Monuments/43 Tower Bridge copy.jpg,15,13,2,31,477.576388660171,2,0.769714861806278
Stesso monumento?,1 = Stesso monumento \n2 = Monumento diverso,Monuments/18 Louvre copy.jpg,15,14,2,31,480.092037833645,2,0.755148488889972
Stesso monumento?,1 = Stesso monumento \n2 = Monumento diverso,Monuments/44 Versailles copy.jpg,15,15,2,31,482.607717376006,2,0.84058515286597
Stesso monumento?,1 = Stesso monumento \n2 = Monumento diverso,Monuments/34 San Pietro copy.jpg,15,16,2,31,485.123372965445,2,0.708104942899809
Quanto familiare?,1 = Moltissimo\n2 = Molto\n3 = Poco\n4 = Pochissimo,People/Michael Jackson/selected/im_15.jpg,5,9,2,32,500.017447995418,4,1.01551507986369
Quanto familiare?,1 = Moltissimo\n2 = Molto\n3 = Poco\n4 = Pochissimo,People/Fiorello/selected/im_69.jpg,5,10,2,32,502.533118983163,4,1.02004047188893
Quanto familiare?,1 = Moltissimo\n2 = Molto\n3 = Poco\n4 = Pochissimo,People/Barack Obama/selected/im_05.jpg,5,11,2,32,505.048794248218,1,0.88537626838297
Quanto familiare?,1 = Moltissimo\n2 = Molto\n3 = Poco\n4 = Pochissimo,People/Johnny Depp/selected/im_12.jpg,5,12,2,32,507.564424173805,2,0.947788182569639
Quanto familiare?,1 = Moltissimo\n2 = Molto\n3 = Poco\n4 = Pochissimo,People/Bill Clinton/selected/im_16.jpg,5,13,2,32,510.080077624589,2,1.23324289678203
Quanto familiare?,1 = Moltissimo\n2 = Molto\n3 = Poco\n4 = Pochissimo,People/Roberto Maroni/selected/im_30.jpg,5,14,2,32,512.595764438374,3,1.08071408804244
Quanto familiare?,1 = Moltissimo\n2 = Molto\n3 = Poco\n4 = Pochissimo,People/George Bush/selected/im_28.jpg,5,15,2,32,515.111429437889,4,1.02514116186285
Quanto familiare?,1 = Moltissimo\n2 = Molto\n3 = Poco\n4 = Pochissimo,People/Sabrina Ferilli/selected/im_15.jpg,5,16,2,32,517.627102564289,4,1.08956982684322
Sicuramente conoscere\n(nome e cognome)?,1 = Moltissimo\n2 = Molto\n3 = Poco\n4 = Pochissimo,People/Angelina Jolie/selected/im_42.jpg,10,17,3,33,12.5116533121982,3,1.13178985242848
Sicuramente conoscere\n(nome e cognome)?,1 = Moltissimo\n2 = Molto\n3 = Poco\n4 = Pochissimo,People/Arnold Schwarzenegger/selected/im_45.jpg,10,18,3,33,15.0273375595971,2,1.27624395883686
Sicuramente conoscere\n(nome e cognome)?,1 = Moltissimo\n2 = Molto\n3 = Poco\n4 = Pochissimo,People/Angelino Alfano/selected/im_68.jpg,10,19,3,33,17.5429666297241,1,1.1806773459648
Sicuramente conoscere\n(nome e cognome)?,1 = Moltissimo\n2 = Molto\n3 = Poco\n4 = Pochissimo,People/Silvio Berlusconi/selected/Silvio Berlusconi_2.jpg,10,20,3,33,20.0586453166252,1,0.76705908117583
Sicuramente conoscere\n(nome e cognome)?,1 = Moltissimo\n2 = Molto\n3 = Poco\n4 = Pochissimo,People/Bill Clinton/selected/im_16.jpg,10,21,3,33,22.5742897850614,2,0.916555278432497
Sicuramente conoscere\n(nome e cognome)?,1 = Moltissimo\n2 = Molto\n3 = Poco\n4 = Pochissimo,People/Fiorello/selected/im_59.jpg,10,22,3,33,25.08997916523,4,0.801023046562477
Sicuramente conoscere\n(nome e cognome)?,1 = Moltissimo\n2 = Molto\n3 = Poco\n4 = Pochissimo,People/Paolo Bonolis/selected/im_20.jpg,10,23,3,33,27.6056510084381,1,0.926490609810571
Sicuramente conoscere\n(nome e cognome)?,1 = Moltissimo\n2 = Molto\n3 = Poco\n4 = Pochissimo,People/Sandra Bullock/selected/im_09.jpg,10,24,3,33,30.1212993264526,4,0.792824730026041
Quanto familiare?,1 = Moltissimo\n2 = Molto\n3 = Poco\n4 = Pochissimo,People/Michelle Obama/selected/im_06.jpg,5,17,3,34,45.0154842832453,4,0.920233335713419
Quanto familiare?,1 = Moltissimo\n2 = Molto\n3 = Poco\n4 = Pochissimo,People/Bill Gates/selected/im_09.jpg,5,18,3,34,47.5311518491435,3,1.14365981028459
Quanto familiare?,1 = Moltissimo\n2 = Molto\n3 = Poco\n4 = Pochissimo,People/Angelino Alfano/selected/im_73.jpg,5,19,3,34,50.0466915235302,1,0.868292699618905
Quanto familiare?,1 = Moltissimo\n2 = Molto\n3 = Poco\n4 = Pochissimo,People/Jim Carrey/selected/im_08.jpg,5,20,3,34,52.562386891932,2,0.954615194110374
Quanto familiare?,1 = Moltissimo\n2 = Molto\n3 = Poco\n4 = Pochissimo,People/Mike Tyson/selected/im_04.jpg,5,21,3,34,55.0780779830275,1,1.09903422659409
Quanto familiare?,1 = Moltissimo\n2 = Molto\n3 = Poco\n4 = Pochissimo,People/Hillary Clinton/selected/im_31.jpg,5,22,3,34,57.5936779674557,4,0.884522945405479
Quanto familiare?,1 = Moltissimo\n2 = Molto\n3 = Poco\n4 = Pochissimo,People/Arnold Schwarzenegger/selected/im_43.jpg,5,23,3,34,60.1093699140147,1,1.48796087460505
Quanto familiare?,1 = Moltissimo\n2 = Molto\n3 = Poco\n4 = Pochissimo,People/Matteo Renzi/selected/im_49.jpg,5,24,3,34,62.6250066832945,1,0.716370413174445
Quanto attraente?,1 = Moltissimo\n2 = Molto\n3 = Poco\n4 = Pochissimo,People/Julia Roberts/selected/im_05.jpg,2,17,3,35,77.5191458728877,2,1.18378823218518
Quanto attraente?,1 = Moltissimo\n2 = Molto\n3 = Poco\n4 = Pochissimo,People/Rihanna/selected/im_16 (1).jpg,2,18,3,35,80.0347796480528,1,0.849351495922747
Quanto attraente?,1 = Moltissimo\n2 = Molto\n3 = Poco\n4 = Pochissimo,People/George Bush/selected/im_85.jpg,2,19,3,35,82.5504253996805,4,0.973753581711208
Quanto attraente?,1 = Moltissimo\n2 = Molto\n3 = Poco\n4 = Pochissimo,People/Brad Pitt/selected/im_16.jpg,2,20,3,35,85.0661759453615,4,0.678062841354404
Quanto attraente?,1 = Moltissimo\n2 = Molto\n3 = Poco\n4 = Pochissimo,People/Matteo Salvini/selected/im_49.jpg,2,21,3,35,87.5817896171757,2,1.2665939239123
Quanto attraente?,1 = Moltissimo\n2 = Molto\n3 = Poco\n4 = Pochissimo,People/Cameron Diaz/selected/im_100.jpg,2,22,3,35,90.0974263864555,2,1.39006398425045
Quanto attraente?,1 = Moltissimo\n2 = Molto\n3 = Poco\n4 = Pochissimo,People/George Clooney/selected/im_08 (1).jpg,2,23,3,35,92.6130879641241,2,1.13447728514075
Quanto attraente?,1 = Moltissimo\n2 = Molto\n3 = Poco\n4 = Pochissimo,People/Giorgio Napolitano/selected/im_38.jpg,2,24,3,35,95.1287525359076,3,0.939909808679658
Che lavoro fa?,1 = Presentatore TV/attore\n2 = Cantante/Musicista\n3 = Politico/Sportivo\n4 = Altro/Non so,People/Giorgia Meloni/selected/im_24.jpg,8,17,3,36,110.022848952423,2,1.2484025323356
Che lavoro fa?,1 = Presentatore TV/attore\n2 = Cantante/Musicista\n3 = Politico/Sportivo\n4 = Altro/Non so,People/Michelle Hunziker/selected/im_27.jpg,8,18,3,36,112.538599498101,1,1.33581702360243
Che lavoro fa?,1 = Presentatore TV/attore\n2 = Cantante/Musicista\n3 = Politico/Sportivo\n4 = Altro/Non so,People/Giorgio Napolitano/selected/im_06.jpg,8,19,3,36,115.054181090105,3,1.0222599670924
Che lavoro fa?,1 = Presentatore TV/attore\n2 = Cantante/Musicista\n3 = Politico/Sportivo\n4 = Altro/Non so,People/Justin Bieber/selected/im_08.jpg,8,20,3,36,117.569818287117,2,1.28879400868755
Che lavoro fa?,1 = Presentatore TV/attore\n2 = Cantante/Musicista\n3 = Politico/Sportivo\n4 = Altro/Non so,People/Jim Carrey/selected/im_18.jpg,8,21,3,36,120.085497401749,1,1.17314628950044
Che lavoro fa?,1 = Presentatore TV/attore\n2 = Cantante/Musicista\n3 = Politico/Sportivo\n4 = Altro/Non so,People/Robin Williams/selected/im_14.jpg,8,22,3,36,122.601166678571,3,0.779557803325588
Che lavoro fa?,1 = Presentatore TV/attore\n2 = Cantante/Musicista\n3 = Politico/Sportivo\n4 = Altro/Non so,People/Matteo Renzi/selected/im_19.jpg,8,23,3,36,125.116873595707,2,1.08509276839686
Che lavoro fa?,1 = Presentatore TV/attore\n2 = Cantante/Musicista\n3 = Politico/Sportivo\n4 = Altro/Non so,People/George Clooney/selected/im_13.jpg,8,24,3,36,127.632474863331,2,1.13153706351659
Stesso volto?,1 = Stesso volto\n2 = Volto diverso,People/Jim Carrey/selected/im_51 (1).jpg,12,17,3,37,142.526587105884,,
Stesso volto?,1 = Stesso volto\n2 = Volto diverso,People/Jim Carrey/selected/im_51 (1).jpg,12,18,3,37,145.042243978511,1,0.520348224210466
Stesso volto?,1 = Stesso volto\n2 = Volto diverso,People/Bill Clinton/selected/im_12.jpg,12,19,3,37,147.557895718372,2,1.25086882821779
Stesso volto?,1 = Stesso volto\n2 = Volto diverso,People/Julia Roberts/selected/im_09.jpg,12,20,3,37,150.073520083457,2,0.795274344407517
Stesso volto?,1 = Stesso volto\n2 = Volto diverso,People/Johnny Depp/selected/im_17.jpg,12,21,3,37,152.589187649359,2,0.519690801949764
Stesso volto?,1 = Stesso volto\n2 = Volto diverso,People/Silvio Berlusconi/selected/im_01.jpg,12,22,3,37,155.104879168182,2,0.520099712604861
Stesso volto?,1 = Stesso volto\n2 = Volto diverso,People/Silvio Berlusconi/selected/im_01.jpg,12,23,3,37,157.62055614416,1,0.519529119701474
Stesso volto?,1 = Stesso volto\n2 = Volto diverso,People/Brad Pitt/selected/im_12.jpg,12,24,3,37,160.136195052095,2,0.519976098403276
Stesso monumento?,1 = Stesso monumento \n2 = Monumento diverso,Monuments/14 Empire State Building copy.jpg,15,17,3,38,175.013710055824,,
Stesso monumento?,1 = Stesso monumento \n2 = Monumento diverso,Monuments/14 Empire State Building copy.jpg,15,18,3,38,177.529281382289,1,0.519562910434615
Stesso monumento?,1 = Stesso monumento \n2 = Monumento diverso,Monuments/38 Stonehenge copy.jpg,15,19,3,38,180.044957502803,2,0.519998340405436
Stesso monumento?,1 = Stesso monumento \n2 = Monumento diverso,Monuments/2 Altare della Patria copy.jpg,15,20,3,38,182.560606248549,2,0.665524340238335
Stesso monumento?,1 = Stesso monumento \n2 = Monumento diverso,Monuments/26 Piazza San Marco  copy.jpg,15,21,3,38,185.076282369064,2,0.749937444368697
Stesso monumento?,1 = Stesso monumento \n2 = Monumento diverso,Monuments/11 Duomo di Milano copy.jpg,15,22,3,38,187.591959345042,2,0.534270006788574
Stesso monumento?,1 = Stesso monumento \n2 = Monumento diverso,Monuments/15 Fontana di Trevi copy.jpg,15,23,3,38,190.107582854667,2,0.560756809798477
Stesso monumento?,1 = Stesso monumento \n2 = Monumento diverso,Monuments/16 Golden Gate copy.jpg,15,24,3,38,192.623279078533,2,0.520148901650828
Stesso monumento?,1 = Stesso monumento \n2 = Monumento diverso,Monuments/1 Acropoli copy.jpg,14,17,3,39,207.517437516013,,
Stesso monumento?,1 = Stesso monumento \n2 = Monumento diverso,Monuments/19 Mart copy.jpg,14,18,3,39,210.033012692056,2,0.645105326573685
Stesso monumento?,1 = Stesso monumento \n2 = Monumento diverso,Monuments/19 Mart copy.jpg,14,19,3,39,212.548692234417,1,0.749513990860578
Stesso monumento?,1 = Stesso monumento \n2 = Monumento diverso,Monuments/43 Tower Bridge copy.jpg,14,20,3,39,215.064356806201,2,0.634952280212019
Stesso monumento?,1 = Stesso monumento \n2 = Monumento diverso,Monuments/3 Ara Pacis copy.jpg,14,21,3,39,217.580031215795,2,0.519372142491193
Stesso monumento?,1 = Stesso monumento \n2 = Monumento diverso,Monuments/37 Statua della liberta copy.jpg,14,22,3,39,220.095684238848,2,0.519818265733193
Stesso monumento?,1 = Stesso monumento \n2 = Monumento diverso,Monuments/37 Statua della liberta copy.jpg,14,23,3,39,222.611320152664,1,0.683281157300371
Stesso monumento?,1 = Stesso monumento \n2 = Monumento diverso,Monuments/25 Piazza di Spagna copy.jpg,14,24,3,39,225.126992423604,2,0.571696453127515
Memoria remota?,1 = Moltissimo\n2 = Molto\n3 = Poco\n4 = Pochissimo,People/Sandra Bullock/selected/im_25.jpg,1,17,3,40,240.021195772821,3,0.898161570185039
Memoria remota?,1 = Moltissimo\n2 = Molto\n3 = Poco\n4 = Pochissimo,People/Julia Roberts/selected/im_100.jpg,1,18,3,40,242.536749562325,2,1.30571204562875
Memoria remota?,1 = Moltissimo\n2 = Molto\n3 = Poco\n4 = Pochissimo,People/Laura Pausini/selected/im_05.jpg,1,19,3,40,245.052389753451,4,0.833102429984137
Memoria remota?,1 = Moltissimo\n2 = Molto\n3 = Poco\n4 = Pochissimo,People/Hillary Clinton/selected/im_13.jpg,1,20,3,40,247.568112924357,2,0.878487235873763
Memoria remota?,1 = Moltissimo\n2 = Molto\n3 = Poco\n4 = Pochissimo,People/Sabrina Ferilli/selected/im_13.jpg,1,21,3,40,250.083757820525,4,1.04692249817163
Memoria remota?,1 = Moltissimo\n2 = Molto\n3 = Poco\n4 = Pochissimo,People/Bill Clinton/selected/im_18.jpg,1,22,3,40,252.599418970462,1,1.53238713573955
Memoria remota?,1 = Moltissimo\n2 = Molto\n3 = Poco\n4 = Pochissimo,People/Angelina Jolie/selected/im_42.jpg,1,23,3,40,255.11524436903,1,0.796625546052383
Memoria remota?,1 = Moltissimo\n2 = Molto\n3 = Poco\n4 = Pochissimo,People/Fiorello/selected/im_77.jpg,1,24,3,40,257.630743836718,4,0.760228220056888
Quanti fatti ricordi?,1 = Moltissimo\n2 = Molto\n3 = Poco\n4 = Pochissimo,People/Julia Roberts/selected/im_02.jpg,7,17,3,41,272.524842819617,4,0.966701156026829
Quanti fatti ricordi?,1 = Moltissimo\n2 = Molto\n3 = Poco\n4 = Pochissimo,People/Michelle Obama/selected/im_16.jpg,7,18,3,41,275.040480444361,4,0.991184040165535
Quanti fatti ricordi?,1 = Moltissimo\n2 = Molto\n3 = Poco\n4 = Pochissimo,People/Bill Gates/selected/im_15.jpg,7,19,3,41,277.556114219526,4,0.77562652940469
Quanti fatti ricordi?,1 = Moltissimo\n2 = Molto\n3 = Poco\n4 = Pochissimo,People/Angelina Jolie/selected/im_55.jpg,7,20,3,41,280.071817714812,4,0.821029727718269
Quanti fatti ricordi?,1 = Moltissimo\n2 = Molto\n3 = Poco\n4 = Pochissimo,People/Arnold Schwarzenegger/selected/im_26.jpg,7,21,3,41,282.58743566394,4,1.12451329579926
Quanti fatti ricordi?,1 = Moltissimo\n2 = Molto\n3 = Poco\n4 = Pochissimo,People/Robin Williams/selected/im_85.jpg,7,22,3,41,285.103118628147,3,1.08895988269796
Quanti fatti ricordi?,1 = Moltissimo\n2 = Molto\n3 = Poco\n4 = Pochissimo,People/Mike Tyson/selected/im_04.jpg,7,23,3,41,287.618816990664,3,0.973333977781294
Quanti fatti ricordi?,1 = Moltissimo\n2 = Molto\n3 = Poco\n4 = Pochissimo,People/Paolo Bonolis/selected/im_11.jpg,7,24,3,41,290.134474291026,4,1.16077503113047
Quanto affidabile?,1 = Moltissimo\n2 = Molto\n3 = Poco\n4 = Pochissimo,People/Julia Roberts/selected/im_04.jpg,4,17,3,42,305.011838733506,1,0.946981054519711
Quanto affidabile?,1 = Moltissimo\n2 = Molto\n3 = Poco\n4 = Pochissimo,People/Justin Bieber/selected/im_38.jpg,4,18,3,42,307.52756062122,2,1.09035727927403
Quanto affidabile?,1 = Moltissimo\n2 = Molto\n3 = Poco\n4 = Pochissimo,People/Matteo Salvini/selected/im_11.jpg,4,19,3,42,310.043177287153,2,0.979918893681315
Quanto affidabile?,1 = Moltissimo\n2 = Molto\n3 = Poco\n4 = Pochissimo,People/Filippo Inzaghi/selected/im_15.jpg,4,20,3,42,312.55886025136,2,1.24437202486661
Quanto affidabile?,1 = Moltissimo\n2 = Molto\n3 = Poco\n4 = Pochissimo,People/Silvio Berlusconi/selected/im_08.jpg,4,21,3,42,315.074544071031,3,1.31780142939169
Quanto affidabile?,1 = Moltissimo\n2 = Molto\n3 = Poco\n4 = Pochissimo,People/Matt Damon/selected/im_19.jpg,4,22,3,42,317.590194955428,4,1.56412775635181
Quanto affidabile?,1 = Moltissimo\n2 = Molto\n3 = Poco\n4 = Pochissimo,People/George Clooney/selected/im_04.jpg,4,23,3,42,320.105879202831,2,1.16864998317033
Quanto affidabile?,1 = Moltissimo\n2 = Molto\n3 = Poco\n4 = Pochissimo,People/Rihanna/selected/im_04.jpg,4,24,3,42,322.621528804033,1,0.794979637874349
Nome comune?,1 = Moltissimo\n2 = Molto\n3 = Poco\n4 = Pochissimo,People/Arnold Schwarzenegger/selected/im_45.jpg,6,17,3,43,337.515618376856,3,1.02446235305979
Nome comune?,1 = Moltissimo\n2 = Molto\n3 = Poco\n4 = Pochissimo,People/Filippo Inzaghi/selected/im_16.jpg,6,18,3,43,340.031306901565,2,1.04788061519866
Nome comune?,1 = Moltissimo\n2 = Molto\n3 = Poco\n4 = Pochissimo,People/Hillary Clinton/selected/im_10.jpg,6,19,3,43,342.546918862459,2,1.07235708336884
Nome comune?,1 = Moltissimo\n2 = Molto\n3 = Poco\n4 = Pochissimo,People/Rihanna/selected/im_07.jpg,6,20,3,43,345.062602254398,1,1.03878149756201
Nome comune?,1 = Moltissimo\n2 = Molto\n3 = Poco\n4 = Pochissimo,People/Michelle Hunziker/selected/im_03.jpg,6,21,3,43,347.578299333723,1,0.703154814174923
Nome comune?,1 = Moltissimo\n2 = Molto\n3 = Poco\n4 = Pochissimo,People/Julia Roberts/selected/im_106.jpg,6,22,3,43,350.09393439208,3,0.848637185459665
Nome comune?,1 = Moltissimo\n2 = Molto\n3 = Poco\n4 = Pochissimo,People/Mike Tyson/selected/im_10.jpg,6,23,3,43,352.60962762183,2,1.01309027387106
Nome comune?,1 = Moltissimo\n2 = Molto\n3 = Poco\n4 = Pochissimo,People/Bill Gates/selected/im_14 (1).jpg,6,24,3,43,355.125267812957,4,0.996600395479618
Stesso monumento?,1 = Stesso monumento \n2 = Monumento diverso,Monuments/44 Versailles copy.jpg,16,17,3,44,370.01943309413,,
Stesso monumento?,1 = Stesso monumento \n2 = Monumento diverso,Monuments/44 Versailles copy.jpg,16,18,3,44,372.535007842445,1,0.519422186996962
Stesso monumento?,1 = Stesso monumento \n2 = Monumento diverso,Monuments/45 White House copy.jpg,16,19,3,44,375.050679257922,2,0.519857189236063
Stesso monumento?,1 = Stesso monumento \n2 = Monumento diverso,Monuments/21 Muraglia Cinese copy.jpg,16,20,3,44,377.566328003664,2,0.705304589253501
Stesso monumento?,1 = Stesso monumento \n2 = Monumento diverso,Monuments/21 Muraglia Cinese copy.jpg,16,21,3,44,380.082025938453,1,0.519698501102539
Stesso monumento?,1 = Stesso monumento \n2 = Monumento diverso,Monuments/4 Arco di Costantino copy.jpg,16,22,3,44,382.597669123694,2,0.54514206865133
Stesso monumento?,1 = Stesso monumento \n2 = Monumento diverso,Monuments/4 Arco di Costantino copy.jpg,16,23,3,44,385.113319152631,1,0.59059616693412
Stesso monumento?,1 = Stesso monumento \n2 = Monumento diverso,Monuments/4 Arco di Costantino copy.jpg,16,24,3,44,387.628998694992,1,0.597021539237176
Volto distintivo?,1 = Moltissimo\n2 = Molto\n3 = Poco\n4 = Pochissimo,People/Matteo Renzi/selected/im_49.jpg,9,17,3,45,402.523127191318,3,1.02348413268192
Volto distintivo?,1 = Moltissimo\n2 = Molto\n3 = Poco\n4 = Pochissimo,People/Mike Tyson/selected/im_11.jpg,9,18,3,45,405.038735730366,2,1.0679801139413
Volto distintivo?,1 = Moltissimo\n2 = Molto\n3 = Poco\n4 = Pochissimo,People/Bill Gates/selected/im_15.jpg,9,19,3,45,407.554402013073,3,1.35541736048253
Volto distintivo?,1 = Moltissimo\n2 = Molto\n3 = Poco\n4 = Pochissimo,People/Angelina Jolie/selected/im_22.jpg,9,20,3,45,410.070065301665,1,0.698818479169859
Volto distintivo?,1 = Moltissimo\n2 = Molto\n3 = Poco\n4 = Pochissimo,People/Bill Clinton/selected/im_19.jpg,9,21,3,45,412.585728162525,3,0.763223618952907
Volto distintivo?,1 = Moltissimo\n2 = Molto\n3 = Poco\n4 = Pochissimo,People/Daniel Radcliffe/selected/im_05.jpg,9,22,3,45,415.10139829481,3,1.00879500102383
Volto distintivo?,1 = Moltissimo\n2 = Molto\n3 = Poco\n4 = Pochissimo,People/Hillary Clinton/selected/im_18.jpg,9,23,3,45,417.617060300207,2,0.914134322018072
Volto distintivo?,1 = Moltissimo\n2 = Molto\n3 = Poco\n4 = Pochissimo,People/Robin Williams/selected/im_20.jpg,9,24,3,45,420.132713750991,3,0.939585588723276
Stesso volto?,1 = Stesso volto\n2 = Volto diverso,People/Robin Williams/selected/im_20.jpg,11,17,3,46,435.026814444813,,
Stesso volto?,1 = Stesso volto\n2 = Volto diverso,People/Fiorello/selected/im_29.jpg,11,18,3,46,437.542449075438,2,0.581497049297468
Stesso volto?,1 = Stesso volto\n2 = Volto diverso,People/Arnold Schwarzenegger/selected/im_01.jpg,11,19,3,46,440.058114930416,2,0.6069414723097
Stesso volto?,1 = Stesso volto\n2 = Volto diverso,People/Arnold Schwarzenegger/selected/im_01.jpg,11,20,3,46,442.573798750083,1,0.519350755952473
Stesso volto?,1 = Stesso volto\n2 = Volto diverso,People/Matt Damon/selected/im_36.jpg,11,21,3,46,445.089412421901,2,0.605842204116925
Stesso volto?,1 = Stesso volto\n2 = Volto diverso,People/Giorgia Meloni/selected/im_17.jpg,11,22,3,46,447.605107362571,2,0.52022888731517
Stesso volto?,1 = Stesso volto\n2 = Volto diverso,People/Paris Hilton/selected/im_01.jpg,11,23,3,46,450.120786049472,2,0.625657689593936
Stesso volto?,1 = Stesso volto\n2 = Volto diverso,People/Giorgio Napolitano/selected/im_x2.jpg,11,24,3,46,452.636423246484,2,0.592111617210321
Stesso volto?,1 = Stesso volto\n2 = Volto diverso,People/Daniel Radcliffe/selected/im_05.jpg,13,17,3,47,467.513873662861,,
Stesso volto?,1 = Stesso volto\n2 = Volto diverso,People/Mike Tyson/selected/im_10.jpg,13,18,3,47,470.029529680029,2,0.530677067938086
Stesso volto?,1 = Stesso volto\n2 = Volto diverso,People/Fiorello/selected/im_59.jpg,13,19,3,47,472.545181419886,2,0.520131792422035
Stesso volto?,1 = Stesso volto\n2 = Volto diverso,People/Romano Prodi/selected/im_07.jpg,13,20,3,47,475.06084000344,2,0.519575314629037
Stesso volto?,1 = Stesso volto\n2 = Volto diverso,People/Filippo Inzaghi/selected/im_33.jpg,13,21,3,47,477.576538793688,2,0.519978664786322
Stesso volto?,1 = Stesso volto\n2 = Volto diverso,People/Michelle Obama/selected/im_06.jpg,13,22,3,47,480.092197377238,2,0.518369541459833
Stesso volto?,1 = Stesso volto\n2 = Volto diverso,People/Bill Clinton/selected/im_19.jpg,13,23,3,47,482.607855105332,2,0.519851201002894
Stesso volto?,1 = Stesso volto\n2 = Volto diverso,People/Johnny Depp/selected/im_27.jpg,13,24,3,47,485.123494868727,2,0.520310583899118
Quanto amichevole?,1 = Moltissimo\n2 = Molto\n3 = Poco\n4 = Pochissimo,People/Tom Cruise/selected/im_02.jpg,3,17,3,48,500.017590429779,1,1.3998316451507
Quanto amichevole?,1 = Moltissimo\n2 = Molto\n3 = Poco\n4 = Pochissimo,People/Sabrina Ferilli/selected/im_10.jpg,3,18,3,48,502.533243880564,2,1.06425030122773
Quanto amichevole?,1 = Moltissimo\n2 = Molto\n3 = Poco\n4 = Pochissimo,People/Brad Pitt/selected/im_06.jpg,3,19,3,48,505.048903747305,2,0.849753562888509
Quanto amichevole?,1 = Moltissimo\n2 = Molto\n3 = Poco\n4 = Pochissimo,People/Matteo Renzi/selected/im_19.jpg,3,20,3,48,507.564639322405,3,1.01506082973719
Quanto amichevole?,1 = Moltissimo\n2 = Molto\n3 = Poco\n4 = Pochissimo,People/Laura Pausini/selected/im_10.jpg,3,21,3,48,510.080220486681,4,0.842648526318953
Quanto amichevole?,1 = Moltissimo\n2 = Molto\n3 = Poco\n4 = Pochissimo,People/Angelino Alfano/selected/im_68.jpg,3,22,3,48,512.595947507165,4,0.865933764172951
Quanto amichevole?,1 = Moltissimo\n2 = Molto\n3 = Poco\n4 = Pochissimo,People/Giorgio Napolitano/selected/im_07.jpg,3,23,3,48,515.111537226054,4,0.931557936779427
Quanto amichevole?,1 = Moltissimo\n2 = Molto\n3 = Poco\n4 = Pochissimo,People/Fiorello/selected/im_59.jpg,3,24,3,48,517.627239438149,2,1.0198458543673
Stesso monumento?,1 = Stesso monumento \n2 = Monumento diverso,Monuments/33 Porta di Brandeburgo copy.jpg,15,25,4,49,12.5116657163926,,
Stesso monumento?,1 = Stesso monumento \n2 = Monumento diverso,Monuments/1 Acropoli copy.jpg,15,26,4,49,15.0274560410362,2,0.602634650731488
Stesso monumento?,1 = Stesso monumento \n2 = Monumento diverso,Monuments/1 Acropoli copy.jpg,15,27,4,49,17.5430136801151,1,0.806180197007052
Stesso monumento?,1 = Stesso monumento \n2 = Monumento diverso,Monuments/41 Torre di Pisa copy.jpg,15,28,4,49,20.0586444611654,2,0.653634279031394
Stesso monumento?,1 = Stesso monumento \n2 = Monumento diverso,Monuments/41 Torre di Pisa copy.jpg,15,29,4,49,22.5743094606805,1,0.520070199181646
Stesso monumento?,1 = Stesso monumento \n2 = Monumento diverso,Monuments/35 Santa Maria del Fiore copy.jpg,15,30,4,49,25.0899753156555,2,0.653506815251603
Stesso monumento?,1 = Stesso monumento \n2 = Monumento diverso,Monuments/35 Santa Maria del Fiore copy.jpg,15,31,4,49,27.6056360378607,1,0.57992770493729
Stesso monumento?,1 = Stesso monumento \n2 = Monumento diverso,Monuments/24 Pantheon copy.jpg,15,32,4,49,30.1213125861104,2,0.519352039143996
Quanto attraente?,1 = Moltissimo\n2 = Molto\n3 = Poco\n4 = Pochissimo,People/Jim Carrey/selected/im_51 (1).jpg,2,25,4,50,45.0153752118895,3,1.01287341434727
Quanto attraente?,1 = Moltissimo\n2 = Molto\n3 = Poco\n4 = Pochissimo,People/Giorgia Meloni/selected/im_24.jpg,2,26,4,50,47.5310680139046,2,1.07629477325827
Quanto attraente?,1 = Moltissimo\n2 = Molto\n3 = Poco\n4 = Pochissimo,People/Johnny Depp/selected/im_17.jpg,2,27,4,50,50.0467133378042,2,0.841744731103972
Quanto attraente?,1 = Moltissimo\n2 = Molto\n3 = Poco\n4 = Pochissimo,People/Robin Williams/selected/im_24.jpg,2,28,4,50,52.5623945910884,4,0.785173481202946
Quanto attraente?,1 = Moltissimo\n2 = Molto\n3 = Poco\n4 = Pochissimo,People/Filippo Inzaghi/selected/im_57.jpg,2,29,4,50,55.0780604460633,1,0.690575250893744
Quanto attraente?,1 = Moltissimo\n2 = Molto\n3 = Poco\n4 = Pochissimo,People/Roberto Maroni/selected/im_14.jpg,2,30,4,50,57.5936997817298,3,0.9740615478986
Quanto attraente?,1 = Moltissimo\n2 = Molto\n3 = Poco\n4 = Pochissimo,People/Paolo Bonolis/selected/im_20.jpg,2,31,4,50,60.109355798897,2,0.958490435299609
Quanto attraente?,1 = Moltissimo\n2 = Molto\n3 = Poco\n4 = Pochissimo,People/Britney Spears/selected/im_29.jpg,2,32,4,50,62.6250751202242,1,0.80287554872848
Stesso volto?,1 = Stesso volto\n2 = Volto diverso,People/Brad Pitt/selected/im_12.jpg,12,25,4,51,77.5190928342709,,
Stesso volto?,1 = Stesso volto\n2 = Volto diverso,People/Romano Prodi/selected/im_07.jpg,12,26,4,51,80.034757833786,2,0.723855702442961
Stesso volto?,1 = Stesso volto\n2 = Volto diverso,People/Romano Prodi/selected/im_07.jpg,12,27,4,51,82.5504985416519,1,0.768218659413833
Stesso volto?,1 = Stesso volto\n2 = Volto diverso,People/Cameron Diaz/selected/im_79.jpg,12,28,4,51,85.0660993815436,2,0.994731211816543
Stesso volto?,1 = Stesso volto\n2 = Volto diverso,People/Giorgia Meloni/selected/im_49.jpg,12,29,4,51,87.5817673751772,2,0.599132818544604
Stesso volto?,1 = Stesso volto\n2 = Volto diverso,People/Mike Tyson/selected/im_41.jpg,12,30,4,51,90.0974640267705,2,0.823549917684431
Stesso volto?,1 = Stesso volto\n2 = Volto diverso,People/Laura Pausini/selected/im_15.jpg,12,31,4,51,92.6131850590209,2,0.727911018304439
Stesso volto?,1 = Stesso volto\n2 = Volto diverso,People/George Clooney/selected/im_13.jpg,12,32,4,51,95.1287551022942,2,0.712451543444331
Stesso volto?,1 = Stesso volto\n2 = Volto diverso,People/Giorgio Napolitano/selected/im_x2.jpg,11,25,4,52,110.022863923004,,
Stesso volto?,1 = Stesso volto\n2 = Volto diverso,People/Tom Cruise/selected/im_01.jpg,11,26,4,52,112.538467329279,2,0.636409559101594
Stesso volto?,1 = Stesso volto\n2 = Volto diverso,People/Laura Pausini/selected/im_17.jpg,11,27,4,52,115.054193066571,2,0.622763235165621
Stesso volto?,1 = Stesso volto\n2 = Volto diverso,People/George Bush/selected/im_03.jpg,11,28,4,52,117.569808021581,2,0.52826252748855
Stesso volto?,1 = Stesso volto\n2 = Volto diverso,People/George Bush/selected/im_03.jpg,11,29,4,52,120.085535469792,1,0.593639471684583
Stesso volto?,1 = Stesso volto\n2 = Volto diverso,People/Sabrina Ferilli/selected/im_03.jpg,11,30,4,52,122.601171383612,2,0.703092365478369
Stesso volto?,1 = Stesso volto\n2 = Volto diverso,People/Sabrina Ferilli/selected/im_03.jpg,11,31,4,52,125.116821840278,1,0.788558115142223
Stesso volto?,1 = Stesso volto\n2 = Volto diverso,People/Filippo Inzaghi/selected/im_15.jpg,11,32,4,52,127.632495822141,2,0.51997182109335
Sicuramente conoscere\n(nome e cognome)?,1 = Moltissimo\n2 = Molto\n3 = Poco\n4 = Pochissimo,People/Romano Prodi/selected/im_12.jpg,10,25,4,53,142.526558875652,2,0.95149318689073
Sicuramente conoscere\n(nome e cognome)?,1 = Moltissimo\n2 = Molto\n3 = Poco\n4 = Pochissimo,People/Sabrina Ferilli/selected/im_04.jpg,10,26,4,53,145.042226869282,4,0.897928884620342
Sicuramente conoscere\n(nome e cognome)?,1 = Moltissimo\n2 = Molto\n3 = Poco\n4 = Pochissimo,People/Roberto Maroni/selected/im_17.jpg,10,27,4,53,147.557893151989,1,0.985369895195618
Sicuramente conoscere\n(nome e cognome)?,1 = Moltissimo\n2 = Molto\n3 = Poco\n4 = Pochissimo,People/Michelle Obama/selected/im_32.jpg,10,28,4,53,150.073569272503,4,0.913772461746703
Sicuramente conoscere\n(nome e cognome)?,1 = Moltissimo\n2 = Molto\n3 = Poco\n4 = Pochissimo,People/Tom Cruise/selected/im_17.jpg,10,29,4,53,152.589224006479,4,0.81925934987521
Sicuramente conoscere\n(nome e cognome)?,1 = Moltissimo\n2 = Molto\n3 = Poco\n4 = Pochissimo,People/Cameron Diaz/selected/im_107.jpg,10,30,4,53,155.104917236225,3,0.866630537668243
Sicuramente conoscere\n(nome e cognome)?,1 = Moltissimo\n2 = Molto\n3 = Poco\n4 = Pochissimo,People/Giorgia Meloni/selected/im_67.jpg,10,31,4,53,157.620538179468,4,1.03111955546774
Sicuramente conoscere\n(nome e cognome)?,1 = Moltissimo\n2 = Molto\n3 = Poco\n4 = Pochissimo,People/Robin Williams/selected/im_14.jpg,10,32,4,53,160.136175804211,2,1.07662327052458
Quanto amichevole?,1 = Moltissimo\n2 = Molto\n3 = Poco\n4 = Pochissimo,People/Paris Hilton/selected/im_02.jpg,3,25,4,54,175.013642474354,2,1.02166413806481
Quanto amichevole?,1 = Moltissimo\n2 = Molto\n3 = Poco\n4 = Pochissimo,People/Sandra Bullock/selected/im_03.jpg,3,26,4,54,177.529258712559,4,0.845158450742019
Quanto amichevole?,1 = Moltissimo\n2 = Molto\n3 = Poco\n4 = Pochissimo,People/Bill Gates/selected/im_07.jpg,3,27,4,54,180.044931838958,3,1.56961554271038
Quanto amichevole?,1 = Moltissimo\n2 = Molto\n3 = Poco\n4 = Pochissimo,People/Filippo Inzaghi/selected/im_10.jpg,3,28,4,54,182.56062720736,1,1.08098270299161
Quanto amichevole?,1 = Moltissimo\n2 = Molto\n3 = Poco\n4 = Pochissimo,People/Michelle Obama/selected/im_35.jpg,3,29,4,54,185.076322575762,4,0.865421342656191
Quanto amichevole?,1 = Moltissimo\n2 = Molto\n3 = Poco\n4 = Pochissimo,People/Silvio Berlusconi/selected/Silvio Berlusconi_8.jpg,3,30,4,54,187.59196233916,2,1.38985653480631
Quanto amichevole?,1 = Moltissimo\n2 = Molto\n3 = Poco\n4 = Pochissimo,People/Jim Carrey/selected/im_37.jpg,3,31,4,54,190.107611512634,3,1.25631127511224
Quanto amichevole?,1 = Moltissimo\n2 = Molto\n3 = Poco\n4 = Pochissimo,People/Johnny Depp/selected/im_50.jpg,3,32,4,54,192.623294904573,3,1.44072741613491
Quanto affidabile?,1 = Moltissimo\n2 = Molto\n3 = Poco\n4 = Pochissimo,People/Donald Trump/selected/im_23.jpg,4,25,4,55,207.517354108506,3,1.14822241488946
Quanto affidabile?,1 = Moltissimo\n2 = Molto\n3 = Poco\n4 = Pochissimo,People/Angelina Jolie/selected/im_29.jpg,4,26,4,55,210.032975051745,3,0.831691346022126
Quanto affidabile?,1 = Moltissimo\n2 = Molto\n3 = Poco\n4 = Pochissimo,People/Michelle Obama/selected/im_08.jpg,4,27,4,55,212.548691378957,4,0.796080616990366
Quanto affidabile?,1 = Moltissimo\n2 = Molto\n3 = Poco\n4 = Pochissimo,People/Giorgia Meloni/selected/im_49.jpg,4,28,4,55,215.064355095281,3,1.02252344927183
Quanto affidabile?,1 = Moltissimo\n2 = Molto\n3 = Poco\n4 = Pochissimo,People/Daniel Radcliffe/selected/im_18.jpg,4,29,4,55,217.580014106563,3,0.825917407746601
Quanto affidabile?,1 = Moltissimo\n2 = Molto\n3 = Poco\n4 = Pochissimo,People/Michelle Hunziker/selected/im_32.jpg,4,30,4,55,220.095702203544,2,0.813360514199303
Quanto affidabile?,1 = Moltissimo\n2 = Molto\n3 = Poco\n4 = Pochissimo,People/Romano Prodi/selected/im_07.jpg,4,31,4,55,222.611354371133,3,0.997821566958009
Quanto affidabile?,1 = Moltissimo\n2 = Molto\n3 = Poco\n4 = Pochissimo,People/Brad Pitt/selected/im_13.jpg,4,32,4,55,225.127009532836,4,0.802250634005759
Quanto familiare?,1 = Moltissimo\n2 = Molto\n3 = Poco\n4 = Pochissimo,People/Silvio Berlusconi/selected/im_01.jpg,5,25,4,56,240.021082851887,1,0.850734349649429
Quanto familiare?,1 = Moltissimo\n2 = Molto\n3 = Poco\n4 = Pochissimo,People/Romano Prodi/selected/im_17.jpg,5,26,4,56,242.536759827864,3,0.875185153974599
Quanto familiare?,1 = Moltissimo\n2 = Molto\n3 = Poco\n4 = Pochissimo,People/Giorgia Meloni/selected/im_17.jpg,5,27,4,56,245.052382909758,3,0.819658422726206
Quanto familiare?,1 = Moltissimo\n2 = Molto\n3 = Poco\n4 = Pochissimo,People/Daniel Radcliffe/selected/im_11.jpg,5,28,4,56,247.568082983202,2,0.944061791702552
Quanto familiare?,1 = Moltissimo\n2 = Molto\n3 = Poco\n4 = Pochissimo,People/Filippo Inzaghi/selected/im_33.jpg,5,29,4,56,250.083743277675,1,0.60947021688844
Quanto familiare?,1 = Moltissimo\n2 = Molto\n3 = Poco\n4 = Pochissimo,People/George Clooney/selected/im_15.jpg,5,30,4,56,252.599445917502,4,1.01588720567452
Quanto familiare?,1 = Moltissimo\n2 = Molto\n3 = Poco\n4 = Pochissimo,People/Paris Hilton/selected/im_15.jpg,5,31,4,56,255.115073276706,4,1.06235545371965
Quanto familiare?,1 = Moltissimo\n2 = Molto\n3 = Poco\n4 = Pochissimo,People/Matteo Salvini/selected/im_59.jpg,5,32,4,56,257.630740414876,1,0.845788925962552
Nome comune?,1 = Moltissimo\n2 = Molto\n3 = Poco\n4 = Pochissimo,People/Roberto Maroni/selected/im_31.jpg,6,25,4,57,272.524776521343,2,1.07232414809914
Nome comune?,1 = Moltissimo\n2 = Molto\n3 = Poco\n4 = Pochissimo,People/Robin Williams/selected/im_10.jpg,6,26,4,57,275.040480444361,3,0.81772679036294
Nome comune?,1 = Moltissimo\n2 = Molto\n3 = Poco\n4 = Pochissimo,People/Brad Pitt/selected/im_11.jpg,6,27,4,57,277.556161269917,3,0.764131691474176
Nome comune?,1 = Moltissimo\n2 = Molto\n3 = Poco\n4 = Pochissimo,People/Fiorello/selected/im_29.jpg,6,28,4,57,280.071813437506,2,0.987532929924782
Nome comune?,1 = Moltissimo\n2 = Molto\n3 = Poco\n4 = Pochissimo,People/George Clooney/selected/im_17.jpg,6,29,4,57,282.587471165596,4,0.55401021164289
Nome comune?,1 = Moltissimo\n2 = Molto\n3 = Poco\n4 = Pochissimo,People/Bill Clinton/selected/im_12.jpg,6,30,4,57,285.103134454188,3,0.959455396015983
Nome comune?,1 = Moltissimo\n2 = Molto\n3 = Poco\n4 = Pochissimo,People/Romano Prodi/selected/im_05.jpg,6,31,4,57,287.618792182278,3,0.803903813604848
Nome comune?,1 = Moltissimo\n2 = Molto\n3 = Poco\n4 = Pochissimo,People/Justin Bieber/selected/im_05.jpg,6,32,4,57,290.134467447333,2,0.768327303041588
Stesso monumento?,1 = Stesso monumento \n2 = Monumento diverso,Monuments/25 Piazza di Spagna copy.jpg,14,25,4,58,305.011881934319,,
Stesso monumento?,1 = Stesso monumento \n2 = Monumento diverso,Monuments/30 Ponte di Brooklyn  copy.jpg,14,26,4,58,307.527517848139,2,0.525937810507457
Stesso monumento?,1 = Stesso monumento \n2 = Monumento diverso,Monuments/40 Teatro dell Opera copy.jpg,14,27,4,58,310.043214072004,2,0.518281001179275
Stesso monumento?,1 = Stesso monumento \n2 = Monumento diverso,Monuments/21 Muraglia Cinese copy.jpg,14,28,4,58,312.558924410983,2,0.519718176718015
Stesso monumento?,1 = Stesso monumento \n2 = Monumento diverso,Monuments/21 Muraglia Cinese copy.jpg,14,29,4,58,315.074550486996,1,0.520192530195345
Stesso monumento?,1 = Stesso monumento \n2 = Monumento diverso,Monuments/10 Colosseo copy.jpg,14,30,4,58,317.590218908354,2,0.519633058287582
Stesso monumento?,1 = Stesso monumento \n2 = Monumento diverso,Monuments/18 Louvre copy.jpg,14,31,4,58,320.105834718826,2,0.520113827726163
Stesso monumento?,1 = Stesso monumento \n2 = Monumento diverso,Monuments/18 Louvre copy.jpg,14,32,4,58,322.62165626782,1,0.66438400988045
Volto distintivo?,1 = Moltissimo\n2 = Molto\n3 = Poco\n4 = Pochissimo,People/Sandra Bullock/selected/im_12.jpg,9,25,4,59,337.515609394512,4,0.896007517796534
Volto distintivo?,1 = Moltissimo\n2 = Molto\n3 = Poco\n4 = Pochissimo,People/Giorgia Meloni/selected/im_49.jpg,9,26,4,59,340.0312726831,4,0.820456568428199
Volto distintivo?,1 = Moltissimo\n2 = Molto\n3 = Poco\n4 = Pochissimo,People/Jim Carrey/selected/im_16.jpg,9,27,4,59,342.546926561616,3,0.744891076210479
Volto distintivo?,1 = Moltissimo\n2 = Molto\n3 = Poco\n4 = Pochissimo,People/Johnny Depp/selected/im_68.jpg,9,28,4,59,345.062614658593,2,1.01131946829628
Volto distintivo?,1 = Moltissimo\n2 = Molto\n3 = Poco\n4 = Pochissimo,People/Barack Obama/selected/im_11.jpg,9,29,4,59,347.5782976228,2,0.975730125806876
Volto distintivo?,1 = Moltissimo\n2 = Molto\n3 = Poco\n4 = Pochissimo,People/Julia Roberts/selected/im_13.jpg,9,30,4,59,350.09397502651,2,1.0421417508478
Volto distintivo?,1 = Moltissimo\n2 = Molto\n3 = Poco\n4 = Pochissimo,People/Roberto Maroni/selected/im_20.jpg,9,31,4,59,352.609598108404,3,0.868616919575288
Volto distintivo?,1 = Moltissimo\n2 = Molto\n3 = Poco\n4 = Pochissimo,People/Laura Pausini/selected/im_10.jpg,9,32,4,59,355.125220762569,4,0.795085287387337
Stesso volto?,1 = Stesso volto\n2 = Volto diverso,People/Johnny Depp/selected/im_27.jpg,13,25,4,60,370.019332577391,,
Stesso volto?,1 = Stesso volto\n2 = Volto diverso,People/Matteo Salvini/selected/im_31.jpg,13,26,4,60,372.534960792054,1,0.520026570637128
Stesso volto?,1 = Stesso volto\n2 = Volto diverso,People/Roberto Maroni/selected/im_25.jpg,13,27,4,60,375.050632635262,2,0.76744788848373
Stesso volto?,1 = Stesso volto\n2 = Volto diverso,People/Sabrina Ferilli/selected/im_15.jpg,13,28,4,60,377.566339124667,2,0.571836748837086
Stesso volto?,1 = Stesso volto\n2 = Volto diverso,People/Paris Hilton/selected/im_39.jpg,13,29,4,60,380.081987442682,2,0.520285775510274
Stesso volto?,1 = Stesso volto\n2 = Volto diverso,People/Paris Hilton/selected/im_39.jpg,13,30,4,60,382.597666557311,1,0.519701495220943
Stesso volto?,1 = Stesso volto\n2 = Volto diverso,People/Paris Hilton/selected/im_39.jpg,13,31,4,60,385.113316158517,1,0.621161810995545
Stesso volto?,1 = Stesso volto\n2 = Volto diverso,People/Bill Gates/selected/im_17.jpg,13,32,4,60,387.629036335307,2,0.760542602201895
Quanti fatti ricordi?,1 = Moltissimo\n2 = Molto\n3 = Poco\n4 = Pochissimo,People/Matteo Renzi/selected/im_72.jpg,7,25,4,61,402.523066881276,3,1.32810546473047
Quanti fatti ricordi?,1 = Moltissimo\n2 = Molto\n3 = Poco\n4 = Pochissimo,People/Tom Cruise/selected/im_11.jpg,7,26,4,61,405.03872632029,3,1.2525455330142
Quanti fatti ricordi?,1 = Moltissimo\n2 = Molto\n3 = Poco\n4 = Pochissimo,People/Daniel Radcliffe/selected/im_07.jpg,7,27,4,61,407.554396024843,4,0.756956507048017
Quanti fatti ricordi?,1 = Moltissimo\n2 = Molto\n3 = Poco\n4 = Pochissimo,People/Barack Obama/selected/im_24.jpg,7,28,4,61,410.070117057094,2,1.22134428096251
Quanti fatti ricordi?,1 = Moltissimo\n2 = Molto\n3 = Poco\n4 = Pochissimo,People/Giorgio Napolitano/selected/im_03.jpg,7,29,4,61,412.585754681837,4,0.826851144116517
Quanti fatti ricordi?,1 = Moltissimo\n2 = Molto\n3 = Poco\n4 = Pochissimo,People/Paris Hilton/selected/im_14.jpg,7,30,4,61,415.101395728423,4,1.13026926937891
Quanti fatti ricordi?,1 = Moltissimo\n2 = Molto\n3 = Poco\n4 = Pochissimo,People/Bill Clinton/selected/im_27.jpg,7,31,4,61,417.617031642243,3,0.714721938613366
Quanti fatti ricordi?,1 = Moltissimo\n2 = Molto\n3 = Poco\n4 = Pochissimo,People/Brad Pitt/selected/im_07.jpg,7,32,4,61,420.132725299722,3,0.781107899802009
Stesso monumento?,1 = Stesso monumento \n2 = Monumento diverso,Monuments/39 Taj Mahal copy.jpg,16,25,4,62,435.026768249885,,
Stesso monumento?,1 = Stesso monumento \n2 = Monumento diverso,Monuments/34 San Pietro copy.jpg,16,26,4,62,437.542455919134,2,0.642060738631699
Stesso monumento?,1 = Stesso monumento \n2 = Monumento diverso,Monuments/23 Palazzo vecchio copy.jpg,16,27,4,62,440.058121774109,2,0.60947706058505
Stesso monumento?,1 = Stesso monumento \n2 = Monumento diverso,Monuments/36 Sfinge copy.jpg,16,28,4,62,442.573753838351,2,0.519962411017332
Stesso monumento?,1 = Stesso monumento \n2 = Monumento diverso,Monuments/31 Ponte di Rialto copy.jpg,16,29,4,62,445.089445784906,2,0.519375136609597
Stesso monumento?,1 = Stesso monumento \n2 = Monumento diverso,Monuments/1 Acropoli copy.jpg,16,30,4,62,447.605075710493,2,0.519835802693706
Stesso monumento?,1 = Stesso monumento \n2 = Monumento diverso,Monuments/30 Ponte di Brooklyn  copy.jpg,16,31,4,62,450.120783483089,2,0.520203223462886
Stesso monumento?,1 = Stesso monumento \n2 = Monumento diverso,Monuments/42 Tour Eiffel copy.jpg,16,32,4,62,452.636488261571,2,0.768622009574756
Memoria remota?,1 = Moltissimo\n2 = Molto\n3 = Poco\n4 = Pochissimo,People/Bill Gates/selected/im_43.jpg,1,25,4,63,467.513855698166,2,1.21287692174155
Memoria remota?,1 = Moltissimo\n2 = Molto\n3 = Poco\n4 = Pochissimo,People/Paolo Bonolis/selected/im_13.jpg,1,26,4,63,470.029527541374,3,1.39828368733288
Memoria remota?,1 = Moltissimo\n2 = Molto\n3 = Poco\n4 = Pochissimo,People/Michael Jackson/selected/im_50.jpg,1,27,4,63,472.545186980387,3,1.02270010209759
Memoria remota?,1 = Moltissimo\n2 = Molto\n3 = Poco\n4 = Pochissimo,People/Johnny Depp/selected/im_09.jpg,1,28,4,63,475.060818616901,2,1.08717538973724
Memoria remota?,1 = Moltissimo\n2 = Molto\n3 = Poco\n4 = Pochissimo,People/Silvio Berlusconi/selected/Silvio Berlusconi_2.jpg,1,29,4,63,477.576552481074,1,0.814578691562929
Memoria remota?,1 = Moltissimo\n2 = Molto\n3 = Poco\n4 = Pochissimo,People/Daniel Radcliffe/selected/im_08.jpg,1,30,4,63,480.092155031889,4,0.838024328473693
Memoria remota?,1 = Moltissimo\n2 = Molto\n3 = Poco\n4 = Pochissimo,People/Roberto Maroni/selected/im_25.jpg,1,31,4,63,482.60785981037,3,0.982415130722075
Memoria remota?,1 = Moltissimo\n2 = Molto\n3 = Poco\n4 = Pochissimo,People/Romano Prodi/selected/im_13.jpg,1,32,4,63,485.123516255269,2,1.18985944337692
Che lavoro fa?,1 = Presentatore TV/attore\n2 = Cantante/Musicista\n3 = Politico/Sportivo\n4 = Altro/Non so,People/Sabrina Ferilli/selected/im_08.jpg,8,25,4,64,500.017590002051,2,1.13635545115176
Che lavoro fa?,1 = Presentatore TV/attore\n2 = Cantante/Musicista\n3 = Politico/Sportivo\n4 = Altro/Non so,People/Paris Hilton/selected/im_18.jpg,8,26,4,64,502.533290503223,1,0.920809489121893
Che lavoro fa?,1 = Presentatore TV/attore\n2 = Cantante/Musicista\n3 = Politico/Sportivo\n4 = Altro/Non so,People/Matt Damon/selected/im_21.jpg,8,27,4,64,505.04892042881,3,1.16524396268869
Che lavoro fa?,1 = Presentatore TV/attore\n2 = Cantante/Musicista\n3 = Politico/Sportivo\n4 = Altro/Non so,People/Sandra Bullock/selected/im_04.jpg,8,28,4,64,507.564559764476,2,1.14971519543542
Che lavoro fa?,1 = Presentatore TV/attore\n2 = Cantante/Musicista\n3 = Politico/Sportivo\n4 = Altro/Non so,People/Rihanna/selected/im_10.jpg,8,29,4,64,510.080205943836,1,1.09413628102629
Che lavoro fa?,1 = Presentatore TV/attore\n2 = Cantante/Musicista\n3 = Politico/Sportivo\n4 = Altro/Non so,People/Barack Obama/selected/im_01.jpg,8,30,4,64,512.595925692895,2,1.56054936035071
Che lavoro fa?,1 = Presentatore TV/attore\n2 = Cantante/Musicista\n3 = Politico/Sportivo\n4 = Altro/Non so,People/Michael Jackson/selected/im_15.jpg,8,31,4,64,515.111556901673,4,1.32505959359696
Che lavoro fa?,1 = Presentatore TV/attore\n2 = Cantante/Musicista\n3 = Politico/Sportivo\n4 = Altro/Non so,People/Roberto Maroni/selected/im_37.jpg,8,32,4,64,517.627224467571,2,1.04942087386007
Che lavoro fa?,1 = Presentatore TV/attore\n2 = Cantante/Musicista\n3 = Politico/Sportivo\n4 = Altro/Non so,People/Fiorello/selected/im_77.jpg,8,33,5,65,12.5116729878137,2,1.58906189649861
Che lavoro fa?,1 = Presentatore TV/attore\n2 = Cantante/Musicista\n3 = Politico/Sportivo\n4 = Altro/Non so,People/Arnold Schwarzenegger/selected/im_11.jpg,8,34,5,65,15.0273448310218,1,1.17332935829108
Che lavoro fa?,1 = Presentatore TV/attore\n2 = Cantante/Musicista\n3 = Politico/Sportivo\n4 = Altro/Non so,People/Laura Pausini/selected/im_05.jpg,8,35,5,65,17.5430555977327,4,1.03565478530072
Che lavoro fa?,1 = Presentatore TV/attore\n2 = Cantante/Musicista\n3 = Politico/Sportivo\n4 = Altro/Non so,People/Bill Clinton/selected/im_18.jpg,8,36,5,65,20.0587141812866,2,1.18114400028571
Che lavoro fa?,1 = Presentatore TV/attore\n2 = Cantante/Musicista\n3 = Politico/Sportivo\n4 = Altro/Non so,People/Filippo Inzaghi/selected/im_14.jpg,8,37,5,65,22.5743334136023,3,1.06569645911804
Che lavoro fa?,1 = Presentatore TV/attore\n2 = Cantante/Musicista\n3 = Politico/Sportivo\n4 = Altro/Non so,People/Cameron Diaz/selected/im_14.jpg,8,38,5,65,25.0899847257315,1,1.19007972474719
Che lavoro fa?,1 = Presentatore TV/attore\n2 = Cantante/Musicista\n3 = Politico/Sportivo\n4 = Altro/Non so,People/Brad Pitt/selected/im_12.jpg,8,39,5,65,27.6056617017093,1,1.09449771356594
Che lavoro fa?,1 = Presentatore TV/attore\n2 = Cantante/Musicista\n3 = Politico/Sportivo\n4 = Altro/Non so,People/Michelle Obama/selected/im_10.jpg,8,40,5,65,30.1213758902668,4,0.958875393029302
Stesso volto?,1 = Stesso volto\n2 = Volto diverso,People/Romano Prodi/selected/im_30.jpg,11,33,5,66,45.0154427933558,,
Stesso volto?,1 = Stesso volto\n2 = Volto diverso,People/Romano Prodi/selected/im_30.jpg,11,34,5,66,47.5310556097102,1,0.519858472427586
Stesso volto?,1 = Stesso volto\n2 = Volto diverso,People/Roberto Maroni/selected/im_30.jpg,11,35,5,66,50.046842940239,2,0.520159594922006
Stesso volto?,1 = Stesso volto\n2 = Volto diverso,People/Michelle Obama/selected/im_15.jpg,11,36,5,66,52.5623834700855,2,0.66872932723345
Stesso volto?,1 = Stesso volto\n2 = Volto diverso,People/Angelino Alfano/selected/im_12.jpg,11,37,5,66,55.0780805494105,2,0.795156718431826
Stesso volto?,1 = Stesso volto\n2 = Volto diverso,People/Donald Trump/selected/im_57.jpg,11,38,5,66,57.593731433808,2,0.659573321401695
Stesso volto?,1 = Stesso volto\n2 = Volto diverso,People/Donald Trump/selected/im_57.jpg,11,39,5,66,60.1094143980154,1,0.544960710783926
Stesso volto?,1 = Stesso volto\n2 = Volto diverso,People/Paolo Bonolis/selected/im_16.jpg,11,40,5,66,62.6250306362199,2,0.789464049008529
Stesso monumento?,1 = Stesso monumento \n2 = Monumento diverso,Monuments/12 Duomo di San Marco copy.jpg,14,33,5,67,77.5191300468468,,
Stesso monumento?,1 = Stesso monumento \n2 = Monumento diverso,Monuments/12 Duomo di San Marco copy.jpg,14,34,5,67,80.0347604001654,1,0.690405869492679
Stesso monumento?,1 = Stesso monumento \n2 = Monumento diverso,Monuments/45 White House copy.jpg,14,35,5,67,82.5504626122602,2,0.519799873305601
Stesso monumento?,1 = Stesso monumento \n2 = Monumento diverso,Monuments/45 White House copy.jpg,14,36,5,67,85.0660972428886,1,0.625265460435912
Stesso monumento?,1 = Stesso monumento \n2 = Monumento diverso,Monuments/33 Porta di Brandeburgo copy.jpg,14,37,5,67,87.5817515491326,2,0.689707385070506
Stesso monumento?,1 = Stesso monumento \n2 = Monumento diverso,Monuments/33 Porta di Brandeburgo copy.jpg,14,38,5,67,90.0975367410065,1,0.854036859276675
Stesso monumento?,1 = Stesso monumento \n2 = Monumento diverso,Monuments/24 Pantheon copy.jpg,14,39,5,67,92.6131102061263,2,1.31858289358934
Stesso monumento?,1 = Stesso monumento \n2 = Monumento diverso,Monuments/24 Pantheon copy.jpg,14,40,5,67,95.1287747779097,2,0.782989059931424
Quanti fatti ricordi?,1 = Moltissimo\n2 = Molto\n3 = Poco\n4 = Pochissimo,People/Donald Trump/selected/im_15.jpg,7,33,5,68,110.022872049885,2,1.05149408512443
Quanti fatti ricordi?,1 = Moltissimo\n2 = Molto\n3 = Poco\n4 = Pochissimo,People/Jim Carrey/selected/im_105.jpg,7,34,5,68,112.538517373781,4,0.975937147522927
Quanti fatti ricordi?,1 = Moltissimo\n2 = Molto\n3 = Poco\n4 = Pochissimo,People/Laura Pausini/selected/im_15.jpg,7,35,5,68,115.054166547256,4,0.850377622151427
Quanti fatti ricordi?,1 = Moltissimo\n2 = Molto\n3 = Poco\n4 = Pochissimo,People/Filippo Inzaghi/selected/im_01.jpg,7,36,5,68,117.569848656003,1,0.957789384490752
Quanti fatti ricordi?,1 = Moltissimo\n2 = Molto\n3 = Poco\n4 = Pochissimo,People/George Clooney/selected/im_11.jpg,7,37,5,68,120.085590219336,4,0.701130364224809
Quanti fatti ricordi?,1 = Moltissimo\n2 = Molto\n3 = Poco\n4 = Pochissimo,People/Britney Spears/selected/im_55.jpg,7,38,5,68,122.601212445767,1,1.04662479752369
Quanti fatti ricordi?,1 = Moltissimo\n2 = Molto\n3 = Poco\n4 = Pochissimo,People/George Bush/selected/im_15.jpg,7,39,5,68,125.116852636897,2,0.950131719702767
Quanti fatti ricordi?,1 = Moltissimo\n2 = Molto\n3 = Poco\n4 = Pochissimo,People/Romano Prodi/selected/im_13.jpg,7,40,5,68,127.632514214562,2,0.894518159097061
Stesso volto?,1 = Stesso volto\n2 = Volto diverso,People/Filippo Inzaghi/selected/im_57.jpg,12,33,5,69,142.526577268072,1,1.10421319130546
Stesso volto?,1 = Stesso volto\n2 = Volto diverso,People/George Bush/selected/im_28.jpg,12,34,5,69,145.043310739165,2,1.02745775195945
Stesso volto?,1 = Stesso volto\n2 = Volto diverso,People/Roberto Maroni/selected/im_16.jpg,12,35,5,69,147.557917532642,2,0.974885785180959
Stesso volto?,1 = Stesso volto\n2 = Volto diverso,People/Roberto Maroni/selected/im_16.jpg,12,36,5,69,150.073641559007,1,0.803252807305398
Stesso volto?,1 = Stesso volto\n2 = Volto diverso,People/Michelle Hunziker/selected/im_29.jpg,12,37,5,69,152.589242398903,2,0.519742985106859
Stesso volto?,1 = Stesso volto\n2 = Volto diverso,People/Michelle Obama/selected/im_16.jpg,12,38,5,69,155.104874035413,2,0.564210736130917
Stesso volto?,1 = Stesso volto\n2 = Volto diverso,People/Angelina Jolie/selected/im_30.jpg,12,39,5,69,157.620557427352,2,0.519633058287582
Stesso volto?,1 = Stesso volto\n2 = Volto diverso,People/Paris Hilton/selected/im_15.jpg,12,40,5,69,160.136271188177,2,0.520024431985803
Volto distintivo?,1 = Moltissimo\n2 = Molto\n3 = Poco\n4 = Pochissimo,People/Silvio Berlusconi/selected/Silvio Berlusconi_6.jpg,9,33,5,70,175.013652312162,1,1.42422769993573
Volto distintivo?,1 = Moltissimo\n2 = Molto\n3 = Poco\n4 = Pochissimo,People/Fiorello/selected/im_69.jpg,9,34,5,70,177.529311323444,4,1.39267442541677
Volto distintivo?,1 = Moltissimo\n2 = Molto\n3 = Poco\n4 = Pochissimo,People/Michelle Obama/selected/im_11.jpg,9,35,5,70,180.045093093471,4,1.01702796376048
Volto distintivo?,1 = Moltissimo\n2 = Molto\n3 = Poco\n4 = Pochissimo,People/Britney Spears/selected/im_13.jpg,9,36,5,70,182.560648593899,3,0.961513636699237
Volto distintivo?,1 = Moltissimo\n2 = Molto\n3 = Poco\n4 = Pochissimo,People/Arnold Schwarzenegger/selected/im_05.jpg,9,37,5,70,185.076314021142,3,0.828956862922496
Volto distintivo?,1 = Moltissimo\n2 = Molto\n3 = Poco\n4 = Pochissimo,People/Paolo Bonolis/selected/im_03.jpg,9,38,5,70,187.591942663537,2,1.13242503268702
Volto distintivo?,1 = Moltissimo\n2 = Molto\n3 = Poco\n4 = Pochissimo,People/George Bush/selected/im_05.jpg,9,39,5,70,190.107661129405,3,0.876811814268876
Volto distintivo?,1 = Moltissimo\n2 = Molto\n3 = Poco\n4 = Pochissimo,People/Giorgio Napolitano/selected/im_43.jpg,9,40,5,70,192.623337249919,3,0.963230975921761
Stesso monumento?,1 = Stesso monumento \n2 = Monumento diverso,Monuments/24 Pantheon copy.jpg,15,33,5,71,207.517410141241,,
Stesso monumento?,1 = Stesso monumento \n2 = Monumento diverso,Monuments/31 Ponte di Rialto copy.jpg,15,34,5,71,210.033000287862,2,0.667228419806634
Stesso monumento?,1 = Stesso monumento \n2 = Monumento diverso,Monuments/42 Tour Eiffel copy.jpg,15,35,5,71,212.548701644497,2,0.713633791419852
Stesso monumento?,1 = Stesso monumento \n2 = Monumento diverso,Monuments/13 Duomo di Trento copy.jpg,15,36,5,71,215.064380759126,2,0.520031703406858
Stesso monumento?,1 = Stesso monumento \n2 = Monumento diverso,Monuments/45 White House copy.jpg,15,37,5,71,217.58003506537,2,0.84848961832904
Stesso monumento?,1 = Stesso monumento \n2 = Monumento diverso,Monuments/25 Piazza di Spagna copy.jpg,15,38,5,71,220.0956752565,2,0.519928620280552
Stesso monumento?,1 = Stesso monumento \n2 = Monumento diverso,Monuments/23 Palazzo vecchio copy.jpg,15,39,5,71,222.611474563488,2,0.51817834578469
Stesso monumento?,1 = Stesso monumento \n2 = Monumento diverso,Monuments/3 Ara Pacis copy.jpg,15,40,5,71,225.127056155496,2,0.519741701915336
Quanto amichevole?,1 = Moltissimo\n2 = Molto\n3 = Poco\n4 = Pochissimo,People/Michelle Hunziker/selected/im_29.jpg,3,33,5,72,240.021084135078,1,0.949312615193776
Quanto amichevole?,1 = Moltissimo\n2 = Molto\n3 = Poco\n4 = Pochissimo,People/Giorgia Meloni/selected/im_67.jpg,3,34,5,72,242.536756406014,4,0.853743008206948
Quanto amichevole?,1 = Moltissimo\n2 = Molto\n3 = Poco\n4 = Pochissimo,People/George Bush/selected/im_05.jpg,3,35,5,72,245.052448780301,4,0.758181528100977
Quanto amichevole?,1 = Moltissimo\n2 = Molto\n3 = Poco\n4 = Pochissimo,People/Donald Trump/selected/im_16.jpg,3,36,5,72,247.568087260508,3,0.882606283623318
Quanto amichevole?,1 = Moltissimo\n2 = Molto\n3 = Poco\n4 = Pochissimo,People/Romano Prodi/selected/im_12.jpg,3,37,5,72,250.083786478488,2,1.02806170786789
Quanto amichevole?,1 = Moltissimo\n2 = Molto\n3 = Poco\n4 = Pochissimo,People/Paolo Bonolis/selected/im_08.jpg,3,38,5,72,252.59941939819,1,1.17258125709122
Quanto amichevole?,1 = Moltissimo\n2 = Molto\n3 = Poco\n4 = Pochissimo,People/Michael Jackson/selected/im_33.jpg,3,39,5,72,255.115085253165,4,0.797892484726617
Quanto amichevole?,1 = Moltissimo\n2 = Molto\n3 = Poco\n4 = Pochissimo,People/George Clooney/selected/im_16.jpg,3,40,5,72,257.630812273648,2,1.14227353471506
Quanto attraente?,1 = Moltissimo\n2 = Molto\n3 = Poco\n4 = Pochissimo,People/Sabrina Ferilli/selected/im_07.jpg,2,33,5,73,272.524832554078,2,1.11088835840928
Quanto attraente?,1 = Moltissimo\n2 = Molto\n3 = Poco\n4 = Pochissimo,People/Paris Hilton/selected/im_26.jpg,2,34,5,73,275.041360714378,3,0.853393979861721
Quanto attraente?,1 = Moltissimo\n2 = Molto\n3 = Poco\n4 = Pochissimo,People/Matteo Renzi/selected/im_16.jpg,2,35,5,73,277.556154853952,3,1.28071759543673
Quanto attraente?,1 = Moltissimo\n2 = Molto\n3 = Poco\n4 = Pochissimo,People/Fiorello/selected/im_18.jpg,2,36,5,73,280.071830546738,4,0.905123744661978
Quanto attraente?,1 = Moltissimo\n2 = Molto\n3 = Poco\n4 = Pochissimo,People/Daniel Radcliffe/selected/im_16.jpg,2,37,5,73,282.587462183248,3,0.92958823637673
Quanto attraente?,1 = Moltissimo\n2 = Molto\n3 = Poco\n4 = Pochissimo,People/Bill Gates/selected/im_16.jpg,2,38,5,73,285.103117772684,4,0.816037253644026
Quanto attraente?,1 = Moltissimo\n2 = Molto\n3 = Poco\n4 = Pochissimo,People/Matt Damon/selected/im_13.jpg,2,39,5,73,287.618854630975,3,0.760419843460113
Quanto attraente?,1 = Moltissimo\n2 = Molto\n3 = Poco\n4 = Pochissimo,People/Romano Prodi/selected/im_30.jpg,2,40,5,73,290.134485412025,2,0.704849055935483
Stesso monumento?,1 = Stesso monumento \n2 = Monumento diverso,Monuments/42 Tour Eiffel copy.jpg,16,33,5,74,305.028568996615,,
Stesso monumento?,1 = Stesso monumento \n2 = Monumento diverso,Monuments/20 Mole Antonelliana copy.jpg,16,34,5,74,307.544243406206,2,0.58771668308691
Stesso monumento?,1 = Stesso monumento \n2 = Monumento diverso,Monuments/20 Mole Antonelliana copy.jpg,16,35,5,74,310.059964866188,1,0.6921552885251
Stesso monumento?,1 = Stesso monumento \n2 = Monumento diverso,Monuments/20 Mole Antonelliana copy.jpg,16,36,5,74,312.575551590966,1,0.519654444829939
Stesso monumento?,1 = Stesso monumento \n2 = Monumento diverso,Monuments/38 Stonehenge copy.jpg,16,37,5,74,315.091298714797,2,0.540996073857968
Stesso monumento?,1 = Stesso monumento \n2 = Monumento diverso,Monuments/38 Stonehenge copy.jpg,16,38,5,74,317.606853359761,2,0.519547939857148
Stesso monumento?,1 = Stesso monumento \n2 = Monumento diverso,Monuments/33 Porta di Brandeburgo copy.jpg,16,39,5,74,320.12250980466,2,0.752018354785832
Stesso monumento?,1 = Stesso monumento \n2 = Monumento diverso,Monuments/26 Piazza San Marco  copy.jpg,16,40,5,74,322.638233403293,2,0.519367437453184
Quanto familiare?,1 = Moltissimo\n2 = Molto\n3 = Poco\n4 = Pochissimo,People/Tom Cruise/selected/im_21.jpg,5,33,5,75,337.515719749059,3,0.950473048895219
Quanto familiare?,1 = Moltissimo\n2 = Molto\n3 = Poco\n4 = Pochissimo,People/Laura Pausini/selected/im_03.jpg,5,34,5,75,340.031284659563,4,0.876011529911921
Quanto familiare?,1 = Moltissimo\n2 = Molto\n3 = Poco\n4 = Pochissimo,People/Britney Spears/selected/im_22.jpg,5,35,5,75,342.54696676831,4,0.859422845700465
Quanto familiare?,1 = Moltissimo\n2 = Molto\n3 = Poco\n4 = Pochissimo,People/Giorgio Napolitano/selected/im_x2.jpg,5,36,5,75,345.062633906477,4,0.963860167954408
Quanto familiare?,1 = Moltissimo\n2 = Molto\n3 = Poco\n4 = Pochissimo,People/Michelle Hunziker/selected/im_11.jpg,5,37,5,75,347.578286501797,1,0.833288065157831
Quanto familiare?,1 = Moltissimo\n2 = Molto\n3 = Poco\n4 = Pochissimo,People/Matt Damon/selected/im_36.jpg,5,38,5,75,350.093907872768,2,0.917783721335582
Quanto familiare?,1 = Moltissimo\n2 = Molto\n3 = Poco\n4 = Pochissimo,People/Donald Trump/selected/im_64.jpg,5,39,5,75,352.609594258825,2,0.924192412141565
Quanto familiare?,1 = Moltissimo\n2 = Molto\n3 = Poco\n4 = Pochissimo,People/Cameron Diaz/selected/im_78.jpg,5,40,5,75,355.125243860031,3,0.808621256765036
Quanto affidabile?,1 = Moltissimo\n2 = Molto\n3 = Poco\n4 = Pochissimo,People/Roberto Maroni/selected/im_10.jpg,4,33,5,76,370.019449347903,2,1.49516856657283
Quanto affidabile?,1 = Moltissimo\n2 = Molto\n3 = Poco\n4 = Pochissimo,People/Sabrina Ferilli/selected/im_11.jpg,4,34,5,76,372.535003137404,3,0.840669415836601
Quanto affidabile?,1 = Moltissimo\n2 = Molto\n3 = Poco\n4 = Pochissimo,People/Giorgio Napolitano/selected/im_46.jpg,4,35,5,76,375.050723741926,4,0.805925269436557
Quanto affidabile?,1 = Moltissimo\n2 = Molto\n3 = Poco\n4 = Pochissimo,People/Arnold Schwarzenegger/selected/im_12.jpg,4,36,5,76,377.5663729154,3,0.991373952649155
Quanto affidabile?,1 = Moltissimo\n2 = Molto\n3 = Poco\n4 = Pochissimo,People/Jim Carrey/selected/im_69.jpg,4,37,5,76,380.082044758605,3,0.594777235652145
Quanto affidabile?,1 = Moltissimo\n2 = Molto\n3 = Poco\n4 = Pochissimo,People/Matteo Renzi/selected/im_72.jpg,4,38,5,76,382.597675111923,2,0.884266734647099
Quanto affidabile?,1 = Moltissimo\n2 = Molto\n3 = Poco\n4 = Pochissimo,People/Johnny Depp/selected/im_68.jpg,4,39,5,76,385.113375613098,4,0.727652668891096
Quanto affidabile?,1 = Moltissimo\n2 = Molto\n3 = Poco\n4 = Pochissimo,People/Bill Clinton/selected/im_19.jpg,4,40,5,76,387.629008960532,4,1.03413035267658
Nome comune?,1 = Moltissimo\n2 = Molto\n3 = Poco\n4 = Pochissimo,People/Barack Obama/selected/im_17.jpg,6,33,5,77,402.523067736733,2,1.44469376398411
Nome comune?,1 = Moltissimo\n2 = Molto\n3 = Poco\n4 = Pochissimo,People/Matt Damon/selected/im_09.jpg,6,34,5,77,405.03875925556,3,0.752044874097919
Nome comune?,1 = Moltissimo\n2 = Molto\n3 = Poco\n4 = Pochissimo,People/Sandra Bullock/selected/im_18.jpg,6,35,5,77,407.554375066029,2,0.676537125538744
Nome comune?,1 = Moltissimo\n2 = Molto\n3 = Poco\n4 = Pochissimo,People/Daniel Radcliffe/selected/im_02.jpg,6,36,5,77,410.070079416779,3,0.821921118738828
Nome comune?,1 = Moltissimo\n2 = Molto\n3 = Poco\n4 = Pochissimo,People/Johnny Depp/selected/im_27.jpg,6,37,5,77,412.585752115447,1,0.825348525759182
Nome comune?,1 = Moltissimo\n2 = Molto\n3 = Poco\n4 = Pochissimo,People/Laura Pausini/selected/im_07.jpg,6,38,5,77,415.101368353651,3,0.794834209398687
Nome comune?,1 = Moltissimo\n2 = Molto\n3 = Poco\n4 = Pochissimo,People/Cameron Diaz/selected/im_114.jpg,6,39,5,77,417.617069282554,4,0.962234363123571
Nome comune?,1 = Moltissimo\n2 = Molto\n3 = Poco\n4 = Pochissimo,People/Giorgio Napolitano/selected/a_im_37.jpg,6,40,5,77,420.132690225793,4,0.806707589101279
Memoria remota?,1 = Moltissimo\n2 = Molto\n3 = Poco\n4 = Pochissimo,People/Giorgio Napolitano/selected/im_xx.jpg,1,33,5,78,435.026828559927,3,1.25215971982107
Memoria remota?,1 = Moltissimo\n2 = Molto\n3 = Poco\n4 = Pochissimo,People/Cameron Diaz/selected/im_16.jpg,1,34,5,78,437.542428544359,3,1.13670447949698
Memoria remota?,1 = Moltissimo\n2 = Molto\n3 = Poco\n4 = Pochissimo,People/Donald Trump/selected/im_18.jpg,1,35,5,78,440.058158131225,4,1.14503838670498
Memoria remota?,1 = Moltissimo\n2 = Molto\n3 = Poco\n4 = Pochissimo,People/Arnold Schwarzenegger/selected/im_13.jpg,1,36,5,78,442.573754693811,3,0.971516977275314
Memoria remota?,1 = Moltissimo\n2 = Molto\n3 = Poco\n4 = Pochissimo,People/Justin Bieber/selected/im_32.jpg,1,37,5,78,445.089455622714,2,1.34393877632101
Memoria remota?,1 = Moltissimo\n2 = Molto\n3 = Poco\n4 = Pochissimo,People/Matteo Salvini/selected/im_09.jpg,1,38,5,78,447.605139870113,3,1.08734519887003
Memoria remota?,1 = Moltissimo\n2 = Molto\n3 = Poco\n4 = Pochissimo,People/Jim Carrey/selected/im_59.jpg,1,39,5,78,450.120793748629,4,0.771763692409877
Memoria remota?,1 = Moltissimo\n2 = Molto\n3 = Poco\n4 = Pochissimo,People/Filippo Inzaghi/selected/im_03.jpg,1,40,5,78,452.636454043102,1,0.856205026775569
Sicuramente conoscere\n(nome e cognome)?,1 = Moltissimo\n2 = Molto\n3 = Poco\n4 = Pochissimo,People/Hillary Clinton/selected/im_13.jpg,10,33,5,79,467.513851420856,3,1.22341364264867
Sicuramente conoscere\n(nome e cognome)?,1 = Moltissimo\n2 = Molto\n3 = Poco\n4 = Pochissimo,People/Matteo Renzi/selected/im_16.jpg,10,34,5,79,470.029566037145,1,0.807770500177867
Sicuramente conoscere\n(nome e cognome)?,1 = Moltissimo\n2 = Molto\n3 = Poco\n4 = Pochissimo,People/Brad Pitt/selected/im_04.jpg,10,35,5,79,472.545180136694,3,0.95427343718984
Sicuramente conoscere\n(nome e cognome)?,1 = Moltissimo\n2 = Molto\n3 = Poco\n4 = Pochissimo,People/Rihanna/selected/im_15.jpg,10,36,5,79,475.060976877299,1,0.778560335067596
Sicuramente conoscere\n(nome e cognome)?,1 = Moltissimo\n2 = Molto\n3 = Poco\n4 = Pochissimo,People/Barack Obama/selected/im_19.jpg,10,37,5,79,477.576493881952,1,0.983305238547473
Sicuramente conoscere\n(nome e cognome)?,1 = Moltissimo\n2 = Molto\n3 = Poco\n4 = Pochissimo,People/Laura Pausini/selected/im_36.jpg,10,38,5,79,480.092200371353,4,0.808500636678218
Sicuramente conoscere\n(nome e cognome)?,1 = Moltissimo\n2 = Molto\n3 = Poco\n4 = Pochissimo,People/Johnny Depp/selected/im_09.jpg,10,39,5,79,482.607832435595,2,0.856998039707833
Sicuramente conoscere\n(nome e cognome)?,1 = Moltissimo\n2 = Molto\n3 = Poco\n4 = Pochissimo,People/Britney Spears/selected/im_13.jpg,10,40,5,79,485.123562450193,4,0.842358952555514
Stesso volto?,1 = Stesso volto\n2 = Volto diverso,People/Bill Gates/selected/im_17.jpg,13,33,5,80,500.017634913784,4,0.808845387713518
Stesso volto?,1 = Stesso volto\n2 = Volto diverso,People/Matt Damon/selected/im_36.jpg,13,34,5,80,502.533263128447,4,0.813330573044368
Stesso volto?,1 = Stesso volto\n2 = Volto diverso,People/Matt Damon/selected/im_36.jpg,13,35,5,80,505.048895620421,2,0.637794979211321
Stesso volto?,1 = Stesso volto\n2 = Volto diverso,People/Paolo Bonolis/selected/im_13.jpg,13,36,5,80,507.564555914894,2,1.194252238849
Stesso volto?,1 = Stesso volto\n2 = Volto diverso,People/Arnold Schwarzenegger/selected/im_13.jpg,13,37,5,80,510.080254277414,2,0.73963811406793
Stesso volto?,1 = Stesso volto\n2 = Volto diverso,People/Justin Bieber/selected/im_38.jpg,13,38,5,80,512.595965471857,2,0.783011301929946
Stesso volto?,1 = Stesso volto\n2 = Volto diverso,People/Silvio Berlusconi/selected/im_08.jpg,13,39,5,80,515.111612506676,2,0.528454150891775
Stesso volto?,1 = Stesso volto\n2 = Volto diverso,People/Silvio Berlusconi/selected/im_08.jpg,13,40,5,80,517.627264246537,1,0.631912825036125
