TaskName,taskIntruct,filepath,blockNum,trialnum,fmriRun,fmriBlock,word,Stim,StimType,time_presented,TR,resp,RT,response
Quanti fatti ricordi?,1 = Moltissimo\n2 = Molto\n3 = Poco\n4 = Pochissimo,People/Bill Gates/selected/im_16.jpg,7,1,1,1,Bill Gates,Bill\nGates,1,12.5452500106935,5.0181000042774,,1.15165533170784,2
Quanti fatti ricordi?,1 = Moltissimo\n2 = Molto\n3 = Poco\n4 = Pochissimo,People/Brad Pitt/selected/im_13.jpg,7,2,1,1,Brad Pitt,Brad\nPitt,1,15.2607519568842,6.10430078275367,,0.684723897515141,2
Quanti fatti ricordi?,1 = Moltissimo\n2 = Molto\n3 = Poco\n4 = Pochissimo,People/Michelle Obama/selected/im_15.jpg,7,3,1,1,Michelle Obama,Michelle\nObama,1,17.7763167800163,7.1105267120065,,0.672216519098129,2
Quanti fatti ricordi?,1 = Moltissimo\n2 = Molto\n3 = Poco\n4 = Pochissimo,People/Giorgia Meloni/selected/im_67.jpg,7,4,1,1,Giorgia Meloni,Giorgia\nMeloni,1,20.2919791265667,8.11679165062669,,0.658260404636621,3
Quanti fatti ricordi?,1 = Moltissimo\n2 = Molto\n3 = Poco\n4 = Pochissimo,People/Bill Clinton/selected/im_19.jpg,7,5,1,1,Bill Clinton,Bill\nClinton,1,22.807673980923,9.12306959236921,,0.644297874160657,4
Quanti fatti ricordi?,1 = Moltissimo\n2 = Molto\n3 = Poco\n4 = Pochissimo,People/Mike Tyson/selected/im_41.jpg,7,6,1,1,Mike Tyson,Mike\nTyson,1,25.3233619915309,10.1293447966123,,0.571861927370719,4
Quanti fatti ricordi?,1 = Moltissimo\n2 = Molto\n3 = Poco\n4 = Pochissimo,People/Donald Trump/selected/im_23.jpg,7,7,1,1,Donald Trump,Donald\nTrump,1,27.8390602677619,11.1356241071047,,0.616261174558076,1
Quanti fatti ricordi?,1 = Moltissimo\n2 = Molto\n3 = Poco\n4 = Pochissimo,People/Justin Bieber/selected/im_38.jpg,7,8,1,1,Justin Bieber,Justin\nBieber,1,30.3547521279779,12.1419008511912,,0.603010821677344,3
Quanto familiare?,1 = Moltissimo\n2 = Molto\n3 = Poco\n4 = Pochissimo,People/Tom Cruise/selected/im_01.jpg,5,1,1,2,Tom Cruise,Tom\nCruise,1,45.0158064930065,18.0063225972026,,1.17728174857803,3
Quanto familiare?,1 = Moltissimo\n2 = Molto\n3 = Poco\n4 = Pochissimo,People/Fiorello/selected/im_77.jpg,5,2,1,2,Fiorello,Fiorello,1,47.7313486462208,19.0925394584883,,0.732496685059232,3
Quanto familiare?,1 = Moltissimo\n2 = Molto\n3 = Poco\n4 = Pochissimo,People/Mike Tyson/selected/im_01.jpg,5,3,1,2,Mike Tyson,Mike\nTyson,1,50.2470161255828,20.0988064502331,,0.69881389280954,3
Quanto familiare?,1 = Moltissimo\n2 = Molto\n3 = Poco\n4 = Pochissimo,People/Sabrina Ferilli/selected/im_10.jpg,5,4,1,2,Sabrina Ferilli,Sabrina\nFerilli,1,52.7626750502586,21.1050700201034,,0.645134094700552,2
Quanto familiare?,1 = Moltissimo\n2 = Molto\n3 = Poco\n4 = Pochissimo,People/Brad Pitt/selected/im_07.jpg,5,5,1,2,Brad Pitt,Brad\nPitt,1,55.2783917190641,22.1113566876256,,0.411784079729841,2
Quanto familiare?,1 = Moltissimo\n2 = Molto\n3 = Poco\n4 = Pochissimo,People/Rihanna/selected/im_07 (1).jpg,5,6,1,2,Rihanna,Rihanna,1,57.7940942726377,23.1176377090551,,0.657327943881228,2
Quanto familiare?,1 = Moltissimo\n2 = Molto\n3 = Poco\n4 = Pochissimo,People/Bill Gates/selected/im_14 (1).jpg,5,7,1,2,Bill Gates,Bill\nGates,1,60.3097895547285,24.1239158218914,,0.634471534282966,4
Quanto familiare?,1 = Moltissimo\n2 = Molto\n3 = Poco\n4 = Pochissimo,People/George Clooney/selected/im_17.jpg,5,8,1,2,George Clooney,George\nClooney,1,62.8255609735234,25.1302243894093,,0.620435433508646,2
Volto distintivo?,1 = Moltissimo\n2 = Molto\n3 = Poco\n4 = Pochissimo,People/Angelina Jolie/selected/im_46.jpg,9,1,1,3,Angelina Jolie,Angelina\nJolie,1,77.5198695410409,31.0079478164163,,1.12183284143885,2
Volto distintivo?,1 = Moltissimo\n2 = Molto\n3 = Poco\n4 = Pochissimo,People/Tom Cruise/selected/im_02.jpg,9,2,1,3,Tom Cruise,Tom\nCruise,1,80.168781812738,32.0675127250952,,0.785654647333104,4
Volto distintivo?,1 = Moltissimo\n2 = Molto\n3 = Poco\n4 = Pochissimo,People/Laura Pausini/selected/im_36.jpg,9,3,1,3,Laura Pausini,Laura\nPausini,1,82.6844018135935,33.0737607254374,,0.769241199366661,3
Volto distintivo?,1 = Moltissimo\n2 = Molto\n3 = Poco\n4 = Pochissimo,People/Brad Pitt/selected/im_16.jpg,9,4,1,3,Brad Pitt,Brad\nPitt,1,85.2001159159931,34.0800463663973,,0.754386415158933,3
Volto distintivo?,1 = Moltissimo\n2 = Molto\n3 = Poco\n4 = Pochissimo,People/Jim Carrey/selected/im_18.jpg,9,5,1,3,Jim Carrey,Jim\nCarrey,1,87.71586466487,35.086345865948,,0.721664314128247,1
Volto distintivo?,1 = Moltissimo\n2 = Molto\n3 = Poco\n4 = Pochissimo,People/Giorgio Napolitano/selected/im_03.jpg,9,6,1,3,Giorgio Napolitano,Giorgio\nNapolitano,1,90.2314637067452,36.0925854826981,,0.722952649814033,3
Volto distintivo?,1 = Moltissimo\n2 = Molto\n3 = Poco\n4 = Pochissimo,People/Michelle Hunziker/selected/im_32.jpg,9,7,1,3,Michelle Hunziker,Michelle\nHunziker,1,92.7472124556225,37.098884982249,,0.707459686042966,1
Volto distintivo?,1 = Moltissimo\n2 = Molto\n3 = Poco\n4 = Pochissimo,People/Matteo Salvini/selected/im_49.jpg,9,8,1,3,Matteo Salvini,Matteo\nSalvini,1,95.2629107318535,38.1051642927414,,0.691438470421872,4
Che lavoro fa?,1 = Presentatore TV/attore\n2 = Cantante/Musicista\n3 = Politico/Sportivo\n4 = Altro/Non so,People/Bill Gates/selected/im_23.jpg,8,1,1,4,Bill Gates,Bill\nGates,1,110.007262500535,44.0029050002138,,,
Che lavoro fa?,1 = Presentatore TV/attore\n2 = Cantante/Musicista\n3 = Politico/Sportivo\n4 = Altro/Non so,People/Jim Carrey/selected/im_51 (1).jpg,8,2,1,4,Jim Carrey,Jim\nCarrey,1,112.522871808033,45.0091487232132,,0.00147568330567083,41
Che lavoro fa?,1 = Presentatore TV/attore\n2 = Cantante/Musicista\n3 = Politico/Sportivo\n4 = Altro/Non so,People/Giorgio Napolitano/selected/im_xx.jpg,8,3,1,4,Giorgio Napolitano,Giorgio\nNapolitano,1,115.03861157449,46.015444629796,,0.726736387356141,3
Che lavoro fa?,1 = Presentatore TV/attore\n2 = Cantante/Musicista\n3 = Politico/Sportivo\n4 = Altro/Non so,People/Sandra Bullock/selected/im_25.jpg,8,4,1,4,Sandra Bullock,Sandra\nBullock,1,117.554164848796,47.0216659395184,,0.891510329783159,4
Che lavoro fa?,1 = Presentatore TV/attore\n2 = Cantante/Musicista\n3 = Politico/Sportivo\n4 = Altro/Non so,People/Michelle Obama/selected/im_16.jpg,8,5,1,4,Michelle Obama,Michelle\nObama,1,120.069902048847,48.0279608195389,,0.855681594593534,3
Che lavoro fa?,1 = Presentatore TV/attore\n2 = Cantante/Musicista\n3 = Politico/Sportivo\n4 = Altro/Non so,People/George Bush/selected/im_85.jpg,8,6,1,4,George Bush,George\nBush,1,122.585637965696,49.0342551862783,,0.869852859404091,3
Che lavoro fa?,1 = Presentatore TV/attore\n2 = Cantante/Musicista\n3 = Politico/Sportivo\n4 = Altro/Non so,People/Arnold Schwarzenegger/selected/im_26.jpg,8,7,1,4,Arnold Schwarzenegger,Arnold\nSchwarzenegger,1,125.101302450918,50.040520980367,,0.835017750973293,1
Che lavoro fa?,1 = Presentatore TV/attore\n2 = Cantante/Musicista\n3 = Politico/Sportivo\n4 = Altro/Non so,People/Donald Trump/selected/im_18.jpg,8,8,1,4,Donald Trump,Donald\nTrump,1,127.616959236922,51.0467836947688,,0.829575259848752,3
Quanto affidabile?,1 = Moltissimo\n2 = Molto\n3 = Poco\n4 = Pochissimo,People/Robin Williams/selected/im_04.jpg,4,1,1,5,Robin Williams,Robin\nWilliams,1,142.511242995851,57.0044971983403,,0.00148252705412233,1
Quanto affidabile?,1 = Moltissimo\n2 = Molto\n3 = Poco\n4 = Pochissimo,People/Matteo Salvini/selected/im_71.jpg,4,2,1,5,Matteo Salvini,Matteo\nSalvini,1,145.026885238889,58.0107540955558,,0.680640745968958,4
Quanto affidabile?,1 = Moltissimo\n2 = Molto\n3 = Poco\n4 = Pochissimo,People/George Clooney/selected/im_13.jpg,4,3,1,5,George Clooney,George\nClooney,1,147.542530476068,59.0170121904273,,0.904539544034833,3
Quanto affidabile?,1 = Moltissimo\n2 = Molto\n3 = Poco\n4 = Pochissimo,People/Angelino Alfano/selected/im_65.jpg,4,4,1,5,Angelino Alfano,Angelino\nAlfano,1,150.058206510116,60.0232826040463,,0.888871209204808,3
Quanto affidabile?,1 = Moltissimo\n2 = Molto\n3 = Poco\n4 = Pochissimo,People/Matt Damon/selected/im_36.jpg,4,5,1,5,Matt Damon,Matt\nDamon,1,152.573976217973,61.0295904871893,,0.873749518799286,2
Quanto affidabile?,1 = Moltissimo\n2 = Molto\n3 = Poco\n4 = Pochissimo,People/Barack Obama/selected/im_17.jpg,4,6,1,5,Barack Obama,Barack\nObama,1,155.089640703195,62.035856281278,,0.858310449548753,1
Quanto affidabile?,1 = Moltissimo\n2 = Molto\n3 = Poco\n4 = Pochissimo,People/Bill Gates/selected/im_17.jpg,4,7,1,5,Bill Gates,Bill\nGates,1,157.605269258736,63.0421077034946,,0.802076222250889,2
Quanto affidabile?,1 = Moltissimo\n2 = Molto\n3 = Poco\n4 = Pochissimo,People/Romano Prodi/selected/im_17.jpg,4,8,1,5,Romano Prodi,Romano\nProdi,1,160.121006886522,64.0484027546088,,0.826996877539841,3
Cognome comune?,1 = Moltissimo\n2 = Molto\n3 = Poco\n4 = Pochissimo,People/Giorgia Meloni/selected/im_49.jpg,10,1,1,6,Giorgia Meloni,Giorgia\nMeloni,1,175.015228623979,70.0060914495914,,1.38284357756993,3
Cognome comune?,1 = Moltissimo\n2 = Molto\n3 = Poco\n4 = Pochissimo,People/Brad Pitt/selected/im_03.jpg,10,2,1,6,Brad Pitt,Brad\nPitt,1,177.930736130716,71.1722944522862,,0.518221908550458,2
Cognome comune?,1 = Moltissimo\n2 = Molto\n3 = Poco\n4 = Pochissimo,People/George Bush/selected/im_05.jpg,10,3,1,6,George Bush,George\nBush,1,180.446448522178,72.1785794088712,,0.502097608965414,2
Cognome comune?,1 = Moltissimo\n2 = Molto\n3 = Poco\n4 = Pochissimo,People/Angelina Jolie/selected/im_42.jpg,10,4,1,6,Angelina Jolie,Angelina\nJolie,1,182.962136532786,73.1848546131143,,0.486742375636368,2
Cognome comune?,1 = Moltissimo\n2 = Molto\n3 = Poco\n4 = Pochissimo,People/Hillary Clinton/selected/im_14.jpg,10,5,1,6,Hillary Clinton,Hillary\nClinton,1,185.477802728945,74.191121091578,,0.471767825826646,1
Cognome comune?,1 = Moltissimo\n2 = Molto\n3 = Poco\n4 = Pochissimo,People/Britney Spears/selected/im_29.jpg,10,6,1,6,Britney Spears,Britney\nSpears,1,187.993495872364,75.1973983489457,,0.456874545532173,3
Cognome comune?,1 = Moltissimo\n2 = Molto\n3 = Poco\n4 = Pochissimo,People/Barack Obama/selected/im_01.jpg,10,7,1,6,Barack Obama,Barack\nObama,1,190.509215107575,76.20368604303,,0.441283630608723,2
Cognome comune?,1 = Moltissimo\n2 = Molto\n3 = Poco\n4 = Pochissimo,People/Jim Carrey/selected/im_59.jpg,10,8,1,6,Jim Carrey,Jim\nCarrey,1,193.02485991702,77.2099439668078,,0.425772274263181,1
Quanto amichevole?,1 = Moltissimo\n2 = Molto\n3 = Poco\n4 = Pochissimo,People/Romano Prodi/selected/im_13.jpg,3,1,1,7,Romano Prodi,Romano\nProdi,1,207.51921852945,83.0076874117798,,1.54166944693952,3
Quanto amichevole?,1 = Moltissimo\n2 = Molto\n3 = Poco\n4 = Pochissimo,People/Rihanna/selected/im_08 (1).jpg,3,2,1,7,Rihanna,Rihanna,1,210.601317849352,84.2405271397407,,1.81989092775575,2
Quanto amichevole?,1 = Moltissimo\n2 = Molto\n3 = Poco\n4 = Pochissimo,People/Matteo Renzi/selected/im_72.jpg,3,3,1,7,Matteo Renzi,Matteo\nRenzi,1,213.950019248043,85.5800076992173,,1.66105350955968,4
Quanto amichevole?,1 = Moltissimo\n2 = Molto\n3 = Poco\n4 = Pochissimo,People/Roberto Maroni/selected/im_25.jpg,3,4,1,7,Roberto Maroni,Roberto\nMaroni,1,217.148810043201,86.8595240172804,,1.24230548783089,4
Quanto amichevole?,1 = Moltissimo\n2 = Molto\n3 = Poco\n4 = Pochissimo,People/Mike Tyson/selected/im_10.jpg,3,5,1,7,Mike Tyson,Mike\nTyson,1,219.931166859147,87.9724667436589,,1.02257881004334,4
Quanto amichevole?,1 = Moltissimo\n2 = Molto\n3 = Poco\n4 = Pochissimo,People/Laura Pausini/selected/im_17.jpg,3,6,1,7,Laura Pausini,Laura\nPausini,1,222.480052611318,88.9920210445271,,0.975880491038879,3
Quanto amichevole?,1 = Moltissimo\n2 = Molto\n3 = Poco\n4 = Pochissimo,People/Sabrina Ferilli/selected/im_15.jpg,3,7,1,7,Sabrina Ferilli,Sabrina\nFerilli,1,224.995766285983,89.9983065143933,,0.639521793062158,2
Quanto amichevole?,1 = Moltissimo\n2 = Molto\n3 = Poco\n4 = Pochissimo,People/Giorgia Meloni/selected/im_30.jpg,3,8,1,7,Giorgia Meloni,Giorgia\nMeloni,1,227.51140938449,91.0045637537962,,0.944226870268267,4
Stesso nome?,1 = nome diverso\n2 = Stesso nome,Monuments/Ponte dei Sospiri.jpg,15,1,1,8,Ponte dei Sospiri,Ponte\ndei Sospiri,2,242.522384618675,97.00895384747,,1.20463535651652,1
Stesso nome?,1 = nome diverso\n2 = Stesso nome,Monuments/San Pietro.jpg,15,2,1,8,San Pietro,San\nPietro,2,245.254612686599,98.1018450746396,,0.622506522947788,2
Stesso nome?,1 = nome diverso\n2 = Stesso nome,Monuments/Colosseo.jpg,15,3,1,8,Colosseo,Colosseo,2,247.770251507764,99.1081006031054,,0.406164506608548,2
Stesso nome?,1 = nome diverso\n2 = Stesso nome,Monuments/Altare della Patria.jpg,15,4,1,8,Altare della Patria,Altare\ndella Patria,2,250.285907010565,100.114362804226,,0.53080713460804,2
Stesso nome?,1 = nome diverso\n2 = Stesso nome,Monuments/Altare della Patria.jpg,15,5,1,8,Altare della Patria,Altare\ndella Patria,2,252.801593310236,101.120637324094,,0.435339834894421,1
Stesso nome?,1 = nome diverso\n2 = Stesso nome,Monuments/Duomo di San Marco.jpg,15,6,1,8,Duomo di San Marco,Duomo\ndi San Marco,2,255.317306984901,102.12692279396,,0.400173660122164,2
Stesso nome?,1 = nome diverso\n2 = Stesso nome,Monuments/Fontana di Trevi.jpg,15,7,1,8,Fontana di Trevi,Fontana\ndi Trevi,2,257.832950938877,103.133180375551,,0.00143547628249507,2
Stesso nome?,1 = nome diverso\n2 = Stesso nome,Monuments/Fontana di Trevi.jpg,15,8,1,8,Fontana di Trevi,Fontana\ndi Trevi,2,260.348673595962,104.139469438385,,0.389215535309177,1
Memoria remota?,1 = Moltissimo\n2 = Molto\n3 = Poco\n4 = Pochissimo,People/Jim Carrey/selected/im_16.jpg,1,1,1,9,Jim Carrey,Jim\nCarrey,1,275.00974378716,110.003897514864,,1.85833098079456,2
Memoria remota?,1 = Moltissimo\n2 = Molto\n3 = Poco\n4 = Pochissimo,People/Bill Gates/selected/im_15.jpg,1,2,1,9,Bill Gates,Bill\nGates,1,278.408302322597,111.363320929039,,,
Memoria remota?,1 = Moltissimo\n2 = Molto\n3 = Poco\n4 = Pochissimo,People/Britney Spears/selected/im_31.jpg,1,3,1,9,Britney Spears,Britney\nSpears,1,280.924166559733,112.369666623893,,0.0239295949354528,3
Memoria remota?,1 = Moltissimo\n2 = Molto\n3 = Poco\n4 = Pochissimo,People/Sandra Bullock/selected/im_18.jpg,1,4,1,9,Sandra Bullock,Sandra\nBullock,1,283.43971299029,113.375885196116,,0.00931434193080349,2
Memoria remota?,1 = Moltissimo\n2 = Molto\n3 = Poco\n4 = Pochissimo,People/Silvio Berlusconi/selected/Silvio Berlusconi_6.jpg,1,5,1,9,Silvio Berlusconi,Silvio\nBerlusconi,1,285.955380041918,114.382152016767,,1.7650002138671,2
Memoria remota?,1 = Moltissimo\n2 = Molto\n3 = Poco\n4 = Pochissimo,People/Laura Pausini/selected/im_10.jpg,1,6,1,9,Laura Pausini,Laura\nPausini,1,289.254080157406,115.701632062963,,1.36691988536722,1
Memoria remota?,1 = Moltissimo\n2 = Molto\n3 = Poco\n4 = Pochissimo,People/Angelina Jolie/selected/im_30.jpg,1,7,1,9,Angelina Jolie,Angelina\nJolie,1,292.152950938877,116.861180375551,,1.28785448479402,2
Memoria remota?,1 = Moltissimo\n2 = Molto\n3 = Poco\n4 = Pochissimo,People/Sabrina Ferilli/selected/im_11.jpg,1,8,1,9,Sabrina Ferilli,Sabrina\nFerilli,1,294.968503785448,117.987401514179,,0.972144232002847,1
Stesso nome?,1 = nome diverso\n2 = Stesso nome,Monuments/Arco di Trionfo.jpg,14,1,1,10,Arco di Trionfo,Arco\ndi Trionfo,2,310.012679755336,124.005071902134,,0.00147012275965608,1
Stesso nome?,1 = nome diverso\n2 = Stesso nome,Monuments/Arco di Trionfo.jpg,14,2,1,10,Arco di Trionfo,Arco\ndi Trionfo,2,312.528359638992,125.011343855597,,0.55565678600442,1
Stesso nome?,1 = nome diverso\n2 = Stesso nome,Monuments/Notre Dame.jpg,14,3,1,10,Notre Dame,Notre\nDame,2,315.044088284358,126.017635313743,,0.619872107447009,2
Stesso nome?,1 = nome diverso\n2 = Stesso nome,Monuments/Notre Dame.jpg,14,4,1,10,Notre Dame,Notre\nDame,2,317.559742076222,127.023896830489,,0.584397536250435,1
Stesso nome?,1 = nome diverso\n2 = Stesso nome,Monuments/Mole Antonelliana.jpg,14,5,1,10,Mole Antonelliana,Mole\nAntonelliana,2,320.07545403995,128.03018161598,,0.488958894734878,2
Stesso nome?,1 = nome diverso\n2 = Stesso nome,Monuments/Stonehenge.jpg,14,6,1,10,Stonehenge,Stonehenge,2,322.591163865007,129.036465546003,,0.412848710380786,2
Stesso nome?,1 = nome diverso\n2 = Stesso nome,Monuments/Fontana di Trevi.jpg,14,7,1,10,Fontana di Trevi,Fontana\ndi Trevi,2,325.106814234997,130.042725693999,,0.239816074254577,2
Stesso nome?,1 = nome diverso\n2 = Stesso nome,Monuments/San Pietro.jpg,14,8,1,10,San Pietro,San\nPietro,2,327.622502673339,131.049001069336,,0.244075452328616,2
Stesso nome?,1 = nome diverso\n2 = Stesso nome,Monuments/Fontana di Trevi.jpg,16,1,1,11,Fontana di Trevi,Fontana\ndi Trevi,2,342.516771033834,137.006708413533,,0.00147824971099908,1
Stesso nome?,1 = nome diverso\n2 = Stesso nome,Monuments/Castel SantAngelo.jpg,16,2,1,11,Castel SantAngelo,Castel\nSantAngelo,2,345.032414560075,138.01296582403,,0.48951152743939,2
Stesso nome?,1 = nome diverso\n2 = Stesso nome,Monuments/Ponte di Rialto.jpg,16,3,1,11,Ponte di Rialto,Ponte\ndi Rialto,2,347.548079473032,139.019231789213,,0.474210188630877,2
Stesso nome?,1 = nome diverso\n2 = Stesso nome,Monuments/Ponte di Rialto.jpg,16,4,1,11,Ponte di Rialto,Ponte\ndi Rialto,2,350.063753368408,140.025501347363,,0.29843449249347,1
Stesso nome?,1 = nome diverso\n2 = Stesso nome,Monuments/Ponte di Rialto.jpg,16,5,1,11,Ponte di Rialto,Ponte\ndi Rialto,2,352.579476453227,141.031790581291,,0.282990290431371,1
Stesso nome?,1 = nome diverso\n2 = Stesso nome,Monuments/Ponte di Rialto.jpg,16,6,1,11,Ponte di Rialto,Ponte\ndi Rialto,2,355.09514607126,142.038058428504,,0.24975747465669,1
Stesso nome?,1 = nome diverso\n2 = Stesso nome,Monuments/Campidoglio.jpg,16,7,1,11,Campidoglio,Campidoglio,2,357.610850335771,143.044340134309,,0.314394542110676,2
Stesso nome?,1 = nome diverso\n2 = Stesso nome,Monuments/Louvre.jpg,16,8,1,11,Louvre,Louvre,2,360.126572992857,144.050629197143,,0.418965310748717,2
Nome comune?,1 = Moltissimo\n2 = Molto\n3 = Poco\n4 = Pochissimo,People/Bill Clinton/selected/im_16.jpg,6,1,1,12,Bill Clinton,Bill\nClinton,1,375.020754095556,150.008301638222,,1.1769973052742,1
Nome comune?,1 = Moltissimo\n2 = Molto\n3 = Poco\n4 = Pochissimo,People/Bill Gates/selected/im_07.jpg,6,2,1,12,Bill Gates,Bill\nGates,1,377.736337311262,151.094534924505,,0.711568073912531,1
Nome comune?,1 = Moltissimo\n2 = Molto\n3 = Poco\n4 = Pochissimo,People/Michelle Hunziker/selected/im_24.jpg,6,3,1,12,Michelle Hunziker,Michelle\nHunziker,1,380.252037726164,152.100815090466,,1.76611018435324,3
Nome comune?,1 = Moltissimo\n2 = Molto\n3 = Poco\n4 = Pochissimo,People/Fiorello/selected/im_35.jpg,6,4,1,12,Fiorello,Fiorello,1,383.550758372899,153.420303349159,,0.00141836691045683,3
Nome comune?,1 = Moltissimo\n2 = Molto\n3 = Poco\n4 = Pochissimo,People/Michael Jackson/selected/im_33.jpg,6,5,1,12,Michael Jackson,Michael\nJackson,1,386.066447666709,154.426579066684,,0.00143290987671207,1
Nome comune?,1 = Moltissimo\n2 = Molto\n3 = Poco\n4 = Pochissimo,People/Paris Hilton/selected/im_26.jpg,6,6,1,12,Paris Hilton,Paris\nHilton,1,388.582123700757,155.432849480303,,1.18874246118321,3
Nome comune?,1 = Moltissimo\n2 = Molto\n3 = Poco\n4 = Pochissimo,People/Angelino Alfano/selected/im_68.jpg,6,7,1,12,Angelino Alfano,Angelino\nAlfano,1,391.29774840669,156.519099362676,,0.00144616963916633,4
Nome comune?,1 = Moltissimo\n2 = Molto\n3 = Poco\n4 = Pochissimo,People/Silvio Berlusconi/selected/im_05.jpg,6,8,1,12,Silvio Berlusconi,Silvio\nBerlusconi,1,393.813415886052,157.525366354421,,0.00143804268782333,1
Stesso nome?,1 = Nome diverso\n2 = Stesso nome,People/Sabrina Ferilli/selected/im_04.jpg,11,1,1,13,Sabrina Ferilli,Sabrina\nFerilli,1,407.508114974978,163.003245989991,,0.00151332392306358,1
Stesso nome?,1 = Nome diverso\n2 = Stesso nome,People/George Bush/selected/im_24.jpg,11,2,1,13,George Bush,George\nBush,1,410.02380640746,164.009522562984,,0.921734462552195,2
Stesso nome?,1 = Nome diverso\n2 = Stesso nome,People/Brad Pitt/selected/im_06.jpg,11,3,1,13,Brad Pitt,Brad\nPitt,1,412.539472603619,165.015789041448,,0.546021643355289,2
Stesso nome?,1 = Nome diverso\n2 = Stesso nome,People/Sandra Bullock/selected/im_12.jpg,11,4,1,13,Sandra Bullock,Sandra\nBullock,1,415.055177295864,166.022070918346,,0.352944095127896,2
Stesso nome?,1 = Nome diverso\n2 = Stesso nome,People/Bill Gates/selected/im_43.jpg,11,5,1,13,Bill Gates,Bill\nGates,1,417.570894392403,167.028357756961,,0.536599512382963,2
Stesso nome?,1 = Nome diverso\n2 = Stesso nome,People/Bill Gates/selected/im_43.jpg,11,6,1,13,Bill Gates,Bill\nGates,1,420.086558022157,168.034623208863,,0.341018863082354,1
Stesso nome?,1 = Nome diverso\n2 = Stesso nome,People/Bill Gates/selected/im_43.jpg,11,7,1,13,Bill Gates,Bill\nGates,1,422.602246032764,169.040898413106,,0.325868514478771,1
Stesso nome?,1 = Nome diverso\n2 = Stesso nome,People/Mike Tyson/selected/im_11.jpg,11,8,1,13,Mike Tyson,Mike\nTyson,1,425.117943025793,170.047177210317,,0.450367423756688,2
Stesso nome?,1 = Nome diverso\n2 = Stesso nome,People/Cameron Diaz/selected/im_32.jpg,13,1,1,14,Cameron Diaz,Cameron\nDiaz,1,440.012161769109,176.004864707644,,0.00147440010277933,1
Stesso nome?,1 = Nome diverso\n2 = Stesso nome,People/Michelle Obama/selected/im_10.jpg,13,2,1,14,Michelle Obama,Michelle\nObama,1,442.527979810941,177.011191924377,,0.92153043329472,2
Stesso nome?,1 = Nome diverso\n2 = Stesso nome,People/Fiorello/selected/im_77.jpg,13,3,1,14,Fiorello,Fiorello,1,445.043497155567,178.017398862227,,0.35593481329397,2
Stesso nome?,1 = Nome diverso\n2 = Stesso nome,People/Angelina Jolie/selected/im_22.jpg,13,4,1,14,Angelina Jolie,Angelina\nJolie,1,447.559224517729,179.023689807092,,0.579964925788317,2
Stesso nome?,1 = Nome diverso\n2 = Stesso nome,People/Rihanna/selected/im_15.jpg,13,5,1,14,Rihanna,Rihanna,1,450.074866333034,180.029946533213,,0.346127721459652,2
Stesso nome?,1 = Nome diverso\n2 = Stesso nome,People/Michelle Hunziker/selected/im_19.jpg,13,6,1,14,Michelle Hunziker,Michelle\nHunziker,1,452.590670259635,181.036268103854,,0.392012917575357,2
Stesso nome?,1 = Nome diverso\n2 = Stesso nome,People/Britney Spears/selected/im_30 (1).jpg,13,7,1,14,Britney Spears,Britney\nSpears,1,455.106252192138,182.042500876855,,0.256744942041678,2
Stesso nome?,1 = Nome diverso\n2 = Stesso nome,People/Matteo Renzi/selected/im_14.jpg,13,8,1,14,Matteo Renzi,Matteo\nRenzi,1,457.622006073827,183.048802429531,,0.302380341332082,2
Quanto attraente?,1 = Moltissimo\n2 = Molto\n3 = Poco\n4 = Pochissimo,People/Paris Hilton/selected/im_01.jpg,2,1,1,15,Paris Hilton,Paris\nHilton,1,472.516197869883,189.006479147953,,1.92706146541786,4
Quanto attraente?,1 = Moltissimo\n2 = Molto\n3 = Poco\n4 = Pochissimo,People/Julia Roberts/selected/im_31.jpg,2,2,1,15,Julia Roberts,Julia\nRoberts,1,475.981485948928,190.392594379571,,0.00149578681703133,1
Quanto attraente?,1 = Moltissimo\n2 = Molto\n3 = Poco\n4 = Pochissimo,People/Cameron Diaz/selected/im_10.jpg,2,3,1,15,Cameron Diaz,Cameron\nDiaz,1,478.497142734933,191.398857093973,,0.00143290987671207,2
Quanto attraente?,1 = Moltissimo\n2 = Molto\n3 = Poco\n4 = Pochissimo,People/Michelle Obama/selected/im_28.jpg,2,4,1,15,Michelle Obama,Michelle\nObama,1,481.012869241627,192.405147696651,,0.00142606612780583,2
Quanto attraente?,1 = Moltissimo\n2 = Molto\n3 = Poco\n4 = Pochissimo,People/Jim Carrey/selected/im_59.jpg,2,5,1,15,Jim Carrey,Jim\nCarrey,1,483.528582488558,193.411432995423,,1.25703794003175,3
Quanto attraente?,1 = Moltissimo\n2 = Molto\n3 = Poco\n4 = Pochissimo,People/Sabrina Ferilli/selected/im_14.jpg,2,6,1,15,Sabrina Ferilli,Sabrina\nFerilli,1,486.310785320159,194.524314128064,,1.0852893622482,1
Quanto attraente?,1 = Moltissimo\n2 = Molto\n3 = Poco\n4 = Pochissimo,People/Silvio Berlusconi/selected/Silvio Berlusconi_2.jpg,2,7,1,15,Silvio Berlusconi,Silvio\nBerlusconi,1,488.926452799521,195.570581119808,,0.00145686299674708,4
Quanto attraente?,1 = Moltissimo\n2 = Molto\n3 = Poco\n4 = Pochissimo,People/Matteo Salvini/selected/im_31.jpg,2,8,1,15,Matteo Salvini,Matteo\nSalvini,1,491.44217588434,196.576870353736,,0.00150605244016333,4
Stesso nome?,1 = Nome diverso\n2 = Stesso nome,People/Angelino Alfano/selected/im_68.jpg,12,1,1,16,Angelino Alfano,Angelino\nAlfano,1,505.020233115189,202.008093246075,,1.01805894178506,1
Stesso nome?,1 = Nome diverso\n2 = Stesso nome,People/Angelino Alfano/selected/im_68.jpg,12,2,1,16,Angelino Alfano,Angelino\nAlfano,1,507.569200564609,203.027680225844,,0.358884896701966,1
Stesso nome?,1 = Nome diverso\n2 = Stesso nome,People/George Clooney/selected/im_11.jpg,12,3,1,16,George Clooney,George\nClooney,1,510.084883014671,204.033953205868,,0.284850079130592,2
Stesso nome?,1 = Nome diverso\n2 = Stesso nome,People/Michael Jackson/selected/im_08.jpg,12,4,1,16,Michael Jackson,Michael\nJackson,1,512.600643312374,205.04025732495,,0.489823345737477,2
Stesso nome?,1 = Nome diverso\n2 = Stesso nome,People/Michael Jackson/selected/im_08.jpg,12,5,1,16,Michael Jackson,Michael\nJackson,1,515.116277856196,206.046511142478,,0.234294452286122,2
Stesso nome?,1 = Nome diverso\n2 = Stesso nome,People/Giorgio Napolitano/selected/im_38.jpg,12,6,1,16,Giorgio Napolitano,Giorgio\nNapolitano,1,517.631994097267,207.052797638907,,0.298178279652802,2
Stesso nome?,1 = Nome diverso\n2 = Stesso nome,People/Giorgio Napolitano/selected/im_38.jpg,12,7,1,16,Giorgio Napolitano,Giorgio\nNapolitano,1,520.14766670944,208.059066683776,,0.442755036571725,1
Stesso nome?,1 = Nome diverso\n2 = Stesso nome,People/Angelina Jolie/selected/im_46.jpg,12,8,1,16,Angelina Jolie,Angelina\nJolie,1,522.663321784507,209.065328713803,,0.10775653364135,2
Cognome comune?,1 = Moltissimo\n2 = Molto\n3 = Poco\n4 = Pochissimo,People/Julia Roberts/selected/im_104.jpg,10,9,2,17,Julia Roberts,Julia\nRoberts,1,12.528609008084,5.0114436032336,,1.35371145044655,1
Cognome comune?,1 = Moltissimo\n2 = Molto\n3 = Poco\n4 = Pochissimo,People/Paris Hilton/selected/im_39.jpg,10,10,2,17,Paris Hilton,Paris\nHilton,1,15.4104717909231,6.16418871636924,,0.562194276914852,2
Cognome comune?,1 = Moltissimo\n2 = Molto\n3 = Poco\n4 = Pochissimo,People/Laura Pausini/selected/im_10.jpg,10,11,2,17,Laura Pausini,Laura\nPausini,1,17.9261148894307,7.17044595577227,,0.546382651097247,3
Cognome comune?,1 = Moltissimo\n2 = Molto\n3 = Poco\n4 = Pochissimo,People/George Clooney/selected/im_01.jpg,10,12,2,17,George Clooney,George\nClooney,1,20.4418478121388,8.17673912485552,,0.532811069763738,3
Cognome comune?,1 = Moltissimo\n2 = Molto\n3 = Poco\n4 = Pochissimo,People/Sabrina Ferilli/selected/im_13.jpg,10,13,2,17,Sabrina Ferilli,Sabrina\nFerilli,1,22.957592283673,9.18303691346919,,0.517258223191675,3
Cognome comune?,1 = Moltissimo\n2 = Molto\n3 = Poco\n4 = Pochissimo,People/Filippo Inzaghi/selected/im_16.jpg,10,14,2,17,Filippo Inzaghi,Filippo\nInzaghi,1,25.4731947474229,10.1892778989692,,0.502225501518296,3
Cognome comune?,1 = Moltissimo\n2 = Molto\n3 = Poco\n4 = Pochissimo,People/Justin Bieber/selected/im_06.jpg,10,15,2,17,Justin Bieber,Justin\nBieber,1,27.9889486291113,11.1955794516445,,0.486496428418832,3
Cognome comune?,1 = Moltissimo\n2 = Molto\n3 = Poco\n4 = Pochissimo,People/Paolo Bonolis/selected/im_13.jpg,10,16,2,17,Paolo Bonolis,Paolo\nBonolis,1,30.5045818897297,12.2018327558919,,0.470592839727942,4
Quanto amichevole?,1 = Moltissimo\n2 = Molto\n3 = Poco\n4 = Pochissimo,People/George Bush/selected/im_28.jpg,3,9,2,18,George Bush,George\nBush,1,45.0156272723384,18.0062509089354,,1.43016382223368,4
Quanto amichevole?,1 = Moltissimo\n2 = Molto\n3 = Poco\n4 = Pochissimo,People/Cameron Diaz/selected/im_16.jpg,3,10,2,18,Cameron Diaz,Cameron\nDiaz,1,47.9812451345224,19.192498053809,,0.495328713803247,1
Quanto amichevole?,1 = Moltissimo\n2 = Molto\n3 = Poco\n4 = Pochissimo,People/Angelina Jolie/selected/im_22.jpg,3,11,2,18,Angelina Jolie,Angelina\nJolie,1,50.4968339107745,20.1987335643098,,0.479045297061475,2
Quanto amichevole?,1 = Moltissimo\n2 = Molto\n3 = Poco\n4 = Pochissimo,People/Britney Spears/selected/im_23.jpg,3,12,2,18,Britney Spears,Britney\nSpears,1,53.0125377475511,21.2050150990204,,0.463622909448986,3
Quanto amichevole?,1 = Moltissimo\n2 = Molto\n3 = Poco\n4 = Pochissimo,People/Hillary Clinton/selected/im_13.jpg,3,13,2,18,Hillary Clinton,Hillary\nClinton,1,55.5281671585608,22.2112668634243,,0.448459728816488,3
Quanto amichevole?,1 = Moltissimo\n2 = Molto\n3 = Poco\n4 = Pochissimo,People/Julia Roberts/selected/im_04.jpg,3,14,2,18,Julia Roberts,Julia\nRoberts,1,58.0438885324434,23.2175554129773,,0.43268788228761,1
Quanto amichevole?,1 = Moltissimo\n2 = Molto\n3 = Poco\n4 = Pochissimo,People/Daniel Radcliffe/selected/im_21.jpg,3,15,2,18,Daniel Radcliffe,Daniel\nRadcliffe,1,60.5596030625775,24.223841225031,,0.417002865819995,1
Quanto amichevole?,1 = Moltissimo\n2 = Molto\n3 = Poco\n4 = Pochissimo,People/Michael Jackson/selected/im_06.jpg,3,16,2,18,Michael Jackson,Michael\nJackson,1,63.0752816630306,25.2301126652123,,0.401361478249783,3
Stesso nome?,1 = Nome diverso\n2 = Stesso nome,People/Britney Spears/selected/im_23.jpg,12,9,2,19,Britney Spears,Britney\nSpears,1,77.5197373711449,31.0078949484579,,0.00150263056593758,1
Stesso nome?,1 = Nome diverso\n2 = Stesso nome,People/Britney Spears/selected/im_23.jpg,12,10,2,19,Britney Spears,Britney\nSpears,1,80.0352679755333,32.0141071902133,,0.162276401899362,1
Stesso nome?,1 = Nome diverso\n2 = Stesso nome,People/Britney Spears/selected/im_23.jpg,12,11,2,19,Britney Spears,Britney\nSpears,1,82.551017579879,33.0204070319516,,0.313945848838557,1
Stesso nome?,1 = Nome diverso\n2 = Stesso nome,People/Britney Spears/selected/im_23.jpg,12,12,2,19,Britney Spears,Britney\nSpears,1,85.0666546901061,34.0266618760425,,0.218595320587156,1
Stesso nome?,1 = Nome diverso\n2 = Stesso nome,People/Tom Cruise/selected/im_01.jpg,12,13,2,19,Tom Cruise,Tom\nCruise,1,87.5823662261,35.03294649044,,0.442769579537526,2
Stesso nome?,1 = Nome diverso\n2 = Stesso nome,People/Bill Clinton/selected/im_18.jpg,12,14,2,19,Bill Clinton,Bill\nClinton,1,90.0980811839681,36.0392324735873,,0.207057615808935,2
Stesso nome?,1 = Nome diverso\n2 = Stesso nome,People/Fiorello/selected/im_69.jpg,12,15,2,19,Fiorello,Fiorello,1,92.6137315539586,37.0454926215834,,0.291213054450509,2
Stesso nome?,1 = Nome diverso\n2 = Stesso nome,People/Brad Pitt/selected/im_16.jpg,12,16,2,19,Brad Pitt,Brad\nPitt,1,95.1294683262754,38.0517873305102,,0.275969459771659,2
Stesso nome?,1 = nome diverso\n2 = Stesso nome,Monuments/Duomo di Milano.jpg,16,9,2,20,Duomo di Milano,Duomo\ndi Milano,2,110.007011420505,44.0028045682022,,0.00148680439724558,1
Stesso nome?,1 = nome diverso\n2 = Stesso nome,Monuments/Duomo di Milano.jpg,16,10,2,20,Duomo di Milano,Duomo\ndi Milano,2,112.522626716284,45.0090506865135,,0.163724282475869,1
Stesso nome?,1 = nome diverso\n2 = Stesso nome,Monuments/Tour Eiffel.jpg,16,11,2,20,Tour Eiffel,Tour\nEiffel,2,115.038321142906,46.0153284571623,,0.308347234697976,2
Stesso nome?,1 = nome diverso\n2 = Stesso nome,Monuments/Duomo di Trento.jpg,16,12,2,20,Duomo di Trento,Duomo\ndi Trento,2,117.554077591,47.0216310364001,,0.472496685059014,2
Stesso nome?,1 = nome diverso\n2 = Stesso nome,Monuments/Duomo di Trento.jpg,16,13,2,20,Duomo di Trento,Duomo\ndi Trento,2,120.069757474656,48.0279029898626,,0.396544334659211,1
Stesso nome?,1 = nome diverso\n2 = Stesso nome,Monuments/Piazza San Pietro.jpg,16,14,2,20,Piazza San Pietro,Piazza\nSan Pietro,2,122.585390735275,49.0341562941101,,0.340967107233155,2
Stesso nome?,1 = nome diverso\n2 = Stesso nome,Monuments/Sfinge.jpg,16,15,2,20,Sfinge,Sfinge,2,125.101078745883,50.0404314983531,,0.286105479276102,2
Stesso nome?,1 = nome diverso\n2 = Stesso nome,Monuments/Arco di Trionfo.jpg,16,16,2,20,Arco di Trionfo,Arco\ndi Trionfo,2,127.616790709611,51.0467162838444,,0.330287437443985,2
Stesso nome?,1 = Nome diverso\n2 = Stesso nome,People/Paolo Bonolis/selected/im_03.jpg,13,9,2,21,Paolo Bonolis,Paolo\nBonolis,1,142.510952564267,57.0043810257068,,0.00149878095726308,1
Stesso nome?,1 = Nome diverso\n2 = Stesso nome,People/Matt Damon/selected/im_13.jpg,13,10,2,21,Matt Damon,Matt\nDamon,1,145.026687197912,58.010674879165,,0.140536806535692,2
Stesso nome?,1 = Nome diverso\n2 = Stesso nome,People/Mike Tyson/selected/im_04.jpg,13,11,2,21,Mike Tyson,Mike\nTyson,1,147.542533042474,59.0170132169895,,0.0852435946790138,2
Stesso nome?,1 = Nome diverso\n2 = Stesso nome,People/Mike Tyson/selected/im_04.jpg,13,12,2,21,Mike Tyson,Mike\nTyson,1,150.058032422259,60.0232129689037,,0.629827623080473,1
Stesso nome?,1 = Nome diverso\n2 = Stesso nome,People/Justin Bieber/selected/im_08.jpg,13,13,2,21,Justin Bieber,Justin\nBieber,1,152.57376363403,61.0295054536122,,0.25433423157574,2
Stesso nome?,1 = Nome diverso\n2 = Stesso nome,People/Bill Clinton/selected/im_27.jpg,13,14,2,21,Bill Clinton,Bill\nClinton,1,155.089463193464,62.0357852773855,,0.258966593952209,2
Stesso nome?,1 = Nome diverso\n2 = Stesso nome,People/Filippo Inzaghi/selected/im_33.jpg,13,15,2,21,Filippo Inzaghi,Filippo\nInzaghi,1,157.605189700158,63.0420758800632,,0.243078831430012,2
Stesso nome?,1 = Nome diverso\n2 = Stesso nome,People/Filippo Inzaghi/selected/im_33.jpg,13,16,2,21,Filippo Inzaghi,Filippo\nInzaghi,1,160.120789169768,64.0483156679071,,0.327183369690829,1
Quanti fatti ricordi?,1 = Moltissimo\n2 = Molto\n3 = Poco\n4 = Pochissimo,People/Paris Hilton/selected/im_13.jpg,7,9,2,22,Paris Hilton,Paris\nHilton,1,175.015053680653,70.0060214722613,,1.04447538389149,3
Quanti fatti ricordi?,1 = Moltissimo\n2 = Molto\n3 = Poco\n4 = Pochissimo,People/George Bush/selected/im_03.jpg,7,10,2,22,George Bush,George\nBush,1,177.597333932161,71.0389335728645,,0.873865434792151,2
Quanti fatti ricordi?,1 = Moltissimo\n2 = Molto\n3 = Poco\n4 = Pochissimo,People/Angelino Alfano/selected/im_65.jpg,7,11,2,22,Angelino Alfano,Angelino\nAlfano,1,180.113014671286,72.0452058685143,,0.758585482698436,2
Quanti fatti ricordi?,1 = Moltissimo\n2 = Molto\n3 = Poco\n4 = Pochissimo,People/Romano Prodi/selected/im_05.jpg,7,12,2,22,Romano Prodi,Romano\nProdi,1,182.628706531502,73.0514826126009,,0.84329055990429,3
Quanti fatti ricordi?,1 = Moltissimo\n2 = Molto\n3 = Poco\n4 = Pochissimo,People/Sabrina Ferilli/selected/im_07.jpg,7,13,2,22,Sabrina Ferilli,Sabrina\nFerilli,1,185.144407374139,74.0577629496556,,0.815663629753544,3
Quanti fatti ricordi?,1 = Moltissimo\n2 = Molto\n3 = Poco\n4 = Pochissimo,People/Matteo Renzi/selected/im_19.jpg,7,14,2,22,Matteo Renzi,Matteo\nRenzi,1,187.660118910133,75.0640475640532,,0.79924718764687,2
Quanti fatti ricordi?,1 = Moltissimo\n2 = Molto\n3 = Poco\n4 = Pochissimo,People/Cameron Diaz/selected/im_79.jpg,7,15,2,22,Cameron Diaz,Cameron\nDiaz,1,190.175750459814,76.0703001839256,,0.784352196415512,3
Quanti fatti ricordi?,1 = Moltissimo\n2 = Molto\n3 = Poco\n4 = Pochissimo,People/Barack Obama/selected/im_05.jpg,7,16,2,22,Barack Obama,Barack\nObama,1,192.691426921596,77.0765707686385,,0.570574447153376,1
Nome comune?,1 = Moltissimo\n2 = Molto\n3 = Poco\n4 = Pochissimo,People/George Bush/selected/im_15.jpg,6,9,2,23,George Bush,George\nBush,1,207.518989263869,83.0075957055476,,0.00147653877411358,1
Nome comune?,1 = Moltissimo\n2 = Molto\n3 = Poco\n4 = Pochissimo,People/Giorgia Meloni/selected/im_24.jpg,6,10,2,23,Giorgia Meloni,Giorgia\nMeloni,1,210.034746139698,84.0138984558791,,0.809758330125078,1
Nome comune?,1 = Moltissimo\n2 = Molto\n3 = Poco\n4 = Pochissimo,People/Donald Trump/selected/im_58.jpg,6,11,2,23,Donald Trump,Donald\nTrump,1,212.55044356046,85.0201774241839,,0.91558749304977,3
Nome comune?,1 = Moltissimo\n2 = Molto\n3 = Poco\n4 = Pochissimo,People/Matteo Renzi/selected/im_15.jpg,6,12,2,23,Matteo Renzi,Matteo\nRenzi,1,215.066060139441,86.0264240557764,,0.395445057530196,1
Nome comune?,1 = Moltissimo\n2 = Molto\n3 = Poco\n4 = Pochissimo,People/Arnold Schwarzenegger/selected/im_05.jpg,6,13,2,23,Arnold Schwarzenegger,Arnold\nSchwarzenegger,1,217.581766970358,87.0327067881431,,0.801879892211218,3
Nome comune?,1 = Moltissimo\n2 = Molto\n3 = Poco\n4 = Pochissimo,People/Tom Cruise/selected/im_13.jpg,6,14,2,23,Tom Cruise,Tom\nCruise,1,220.097459686043,88.0389838744171,,0.467079002523406,1
Nome comune?,1 = Moltissimo\n2 = Molto\n3 = Poco\n4 = Pochissimo,People/George Clooney/selected/im_11.jpg,6,15,2,23,George Clooney,George\nClooney,1,222.613188759143,89.0452755036571,,0.391719919585739,1
Nome comune?,1 = Moltissimo\n2 = Molto\n3 = Poco\n4 = Pochissimo,People/Britney Spears/selected/im_55.jpg,6,16,2,23,Britney Spears,Britney\nSpears,1,225.128884041234,90.0515536164934,,0.61627443432144,3
Stesso nome?,1 = Nome diverso\n2 = Stesso nome,People/Jim Carrey/selected/im_16.jpg,11,9,2,24,Jim Carrey,Jim\nCarrey,1,240.006395055391,96.0025580221565,,0.00150177509704008,1
Stesso nome?,1 = Nome diverso\n2 = Stesso nome,People/Giorgia Meloni/selected/im_49.jpg,11,10,2,24,Giorgia Meloni,Giorgia\nMeloni,1,242.52205226913,97.0088209076521,,0.244009153514071,2
Stesso nome?,1 = Nome diverso\n2 = Stesso nome,People/Fiorello/selected/im_18.jpg,11,11,2,24,Fiorello,Fiorello,1,245.037755250438,98.0151021001753,,0.0488258693699208,2
Stesso nome?,1 = Nome diverso\n2 = Stesso nome,People/Barack Obama/selected/im_24.jpg,11,12,2,24,Barack Obama,Barack\nObama,1,247.553420163394,99.0213680653576,,0.273030069720789,2
Stesso nome?,1 = Nome diverso\n2 = Stesso nome,People/Barack Obama/selected/im_24.jpg,11,13,2,24,Barack Obama,Barack\nObama,1,250.069114162282,100.027645664913,,0.177945592198284,1
Stesso nome?,1 = Nome diverso\n2 = Stesso nome,People/Hillary Clinton/selected/im_09.jpg,11,14,2,24,Hillary Clinton,Hillary\nClinton,1,252.584801745156,101.033920698062,,0.221859360965027,2
Stesso nome?,1 = Nome diverso\n2 = Stesso nome,People/Silvio Berlusconi/selected/im_05.jpg,11,15,2,24,Silvio Berlusconi,Silvio\nBerlusconi,1,255.100489328029,102.040195731212,,0.426073399204597,2
Stesso nome?,1 = Nome diverso\n2 = Stesso nome,People/Silvio Berlusconi/selected/im_05.jpg,11,16,2,24,Silvio Berlusconi,Silvio\nBerlusconi,1,257.616221395269,103.046488558108,,0.411835835578586,1
Quanto affidabile?,1 = Moltissimo\n2 = Molto\n3 = Poco\n4 = Pochissimo,People/Michelle Hunziker/selected/im_29.jpg,4,9,2,25,Michelle Hunziker,Michelle\nHunziker,1,272.51044356046,109.004177424184,,0.00151845673462958,3
Quanto affidabile?,1 = Moltissimo\n2 = Molto\n3 = Poco\n4 = Pochissimo,People/Giorgia Meloni/selected/im_49.jpg,4,10,2,25,Giorgia Meloni,Giorgia\nMeloni,1,275.026188887463,110.010475554985,,0.934475811625816,4
Quanto affidabile?,1 = Moltissimo\n2 = Molto\n3 = Poco\n4 = Pochissimo,People/Michael Jackson/selected/im_08.jpg,4,11,2,25,Michael Jackson,Michael\nJackson,1,277.541881175413,111.016752470165,,0.921411523162078,3
Quanto affidabile?,1 = Moltissimo\n2 = Molto\n3 = Poco\n4 = Pochissimo,People/Brad Pitt/selected/im_06.jpg,4,12,2,25,Brad Pitt,Brad\nPitt,1,280.057441721202,112.022976688481,,0.905800504726813,2
Quanto affidabile?,1 = Moltissimo\n2 = Molto\n3 = Poco\n4 = Pochissimo,People/Daniel Radcliffe/selected/im_56.jpg,4,13,2,25,Daniel Radcliffe,Daniel\nRadcliffe,1,282.573287565764,113.029315026306,,0.639621027417888,2
Quanto affidabile?,1 = Moltissimo\n2 = Molto\n3 = Poco\n4 = Pochissimo,People/Paris Hilton/selected/im_02.jpg,4,14,2,25,Paris Hilton,Paris\nHilton,1,285.088866076393,114.035546430557,,0.864669147525547,3
Quanto affidabile?,1 = Moltissimo\n2 = Molto\n3 = Poco\n4 = Pochissimo,People/Arnold Schwarzenegger/selected/im_13.jpg,4,15,2,25,Arnold Schwarzenegger,Arnold\nSchwarzenegger,1,287.604495059669,115.041798023868,,0.849816074254704,2
Quanto affidabile?,1 = Moltissimo\n2 = Molto\n3 = Poco\n4 = Pochissimo,People/Matteo Renzi/selected/im_14.jpg,4,16,2,25,Matteo Renzi,Matteo\nRenzi,1,290.120207023397,116.048082809359,,0.834978827152554,3
Stesso nome?,1 = nome diverso\n2 = Stesso nome,Monuments/Stonehenge.jpg,15,9,2,26,Stonehenge,Stonehenge,2,305.014415501091,122.005766200436,,0.00153128876354458,1
Stesso nome?,1 = nome diverso\n2 = Stesso nome,Monuments/Stonehenge.jpg,15,10,2,26,Stonehenge,Stonehenge,2,307.530076564438,123.012030625775,,0.506561871764916,1
Stesso nome?,1 = nome diverso\n2 = Stesso nome,Monuments/Teatro dell Opera.jpg,15,11,2,26,Teatro dell Opera,Teatro\ndell Opera,2,310.0457739852,124.01830959408,,0.890393943282106,2
Stesso nome?,1 = nome diverso\n2 = Stesso nome,Monuments/Torre di Pisa.jpg,15,12,2,26,Torre di Pisa,Torre\ndi Pisa,2,312.561464989948,125.024585995979,,0.304850934599472,2
Stesso nome?,1 = nome diverso\n2 = Stesso nome,Monuments/Louvre.jpg,15,13,2,26,Louvre,Louvre,2,315.077200906796,126.030880362719,,0.269279267718957,2
Stesso nome?,1 = nome diverso\n2 = Stesso nome,Monuments/Louvre.jpg,15,14,2,26,Louvre,Louvre,2,317.592883356859,127.037153342743,,0.234068608580401,1
Stesso nome?,1 = nome diverso\n2 = Stesso nome,Monuments/White House.jpg,15,15,2,26,White House,White\nHouse,2,320.108574789341,128.043429915736,,0.438500791308343,2
Stesso nome?,1 = nome diverso\n2 = Stesso nome,Monuments/White House.jpg,15,16,2,26,White House,White\nHouse,2,322.624246546045,129.049698618418,,0.323172932974103,1
Volto distintivo?,1 = Moltissimo\n2 = Molto\n3 = Poco\n4 = Pochissimo,People/Sandra Bullock/selected/im_02.jpg,9,9,2,27,Sandra Bullock,Sandra\nBullock,1,337.518405406561,135.007362162624,,1.19929381068459,2
Volto distintivo?,1 = Moltissimo\n2 = Molto\n3 = Poco\n4 = Pochissimo,People/Cameron Diaz/selected/im_107.jpg,9,10,2,27,Cameron Diaz,Cameron\nDiaz,1,340.250674536977,136.100269814791,,0.717632918430809,1
Volto distintivo?,1 = Moltissimo\n2 = Molto\n3 = Poco\n4 = Pochissimo,People/Silvio Berlusconi/selected/Silvio Berlusconi_6.jpg,9,11,2,27,Silvio Berlusconi,Silvio\nBerlusconi,1,342.766382223363,137.106552889345,,0.701437187219199,1
Volto distintivo?,1 = Moltissimo\n2 = Molto\n3 = Poco\n4 = Pochissimo,People/Julia Roberts/selected/im_05.jpg,9,12,2,27,Julia Roberts,Julia\nRoberts,1,345.282078788656,138.112831515462,,0.686196158946132,1
Volto distintivo?,1 = Moltissimo\n2 = Molto\n3 = Poco\n4 = Pochissimo,People/Bill Clinton/selected/im_27.jpg,9,13,2,27,Bill Clinton,Bill\nClinton,1,347.797716326618,139.119086530647,,0.350107361306982,2
Volto distintivo?,1 = Moltissimo\n2 = Molto\n3 = Poco\n4 = Pochissimo,People/Matteo Renzi/selected/im_15.jpg,9,14,2,27,Matteo Renzi,Matteo\nRenzi,1,350.3134377005,140.1253750802,,0.4148064502333,2
Volto distintivo?,1 = Moltissimo\n2 = Molto\n3 = Poco\n4 = Pochissimo,People/Roberto Maroni/selected/im_17.jpg,9,15,2,27,Roberto Maroni,Roberto\nMaroni,1,352.829194148595,141.131677659438,,0.638869070533019,1
Volto distintivo?,1 = Moltissimo\n2 = Molto\n3 = Poco\n4 = Pochissimo,People/Giorgia Meloni/selected/im_30.jpg,9,16,2,27,Giorgia Meloni,Giorgia\nMeloni,1,355.344812438513,142.137924975405,,0.624138329269954,1
Che lavoro fa?,1 = Presentatore TV/attore\n2 = Cantante/Musicista\n3 = Politico/Sportivo\n4 = Altro/Non so,People/Angelino Alfano/selected/im_12.jpg,8,9,2,28,Angelino Alfano,Angelino\nAlfano,1,370.005761580906,148.002304632362,,1.19032807220128,3
Che lavoro fa?,1 = Presentatore TV/attore\n2 = Cantante/Musicista\n3 = Politico/Sportivo\n4 = Altro/Non so,People/Matteo Renzi/selected/im_72.jpg,8,10,2,28,Matteo Renzi,Matteo\nRenzi,1,372.72138543137,149.088554172548,,0.52498567090106,3
Che lavoro fa?,1 = Presentatore TV/attore\n2 = Cantante/Musicista\n3 = Politico/Sportivo\n4 = Altro/Non so,People/Roberto Maroni/selected/im_20.jpg,8,11,2,28,Roberto Maroni,Roberto\nMaroni,1,375.237057188075,150.09482287523,,0.449068394713322,3
Che lavoro fa?,1 = Presentatore TV/attore\n2 = Cantante/Musicista\n3 = Politico/Sportivo\n4 = Altro/Non so,People/Tom Cruise/selected/im_21.jpg,8,12,2,28,Tom Cruise,Tom\nCruise,1,377.752811497498,151.101124598999,,0.714311989392172,1
Che lavoro fa?,1 = Presentatore TV/attore\n2 = Cantante/Musicista\n3 = Politico/Sportivo\n4 = Altro/Non so,People/Michelle Hunziker/selected/im_19.jpg,8,13,2,28,Michelle Hunziker,Michelle\nHunziker,1,380.268444330382,152.107377732153,,0.687852346122781,1
Che lavoro fa?,1 = Presentatore TV/attore\n2 = Cantante/Musicista\n3 = Politico/Sportivo\n4 = Altro/Non so,People/Robin Williams/selected/im_25.jpg,8,14,2,28,Robin Williams,Robin\nWilliams,1,382.78424996792,153.113699987168,,0.672983018948344,1
Che lavoro fa?,1 = Presentatore TV/attore\n2 = Cantante/Musicista\n3 = Politico/Sportivo\n4 = Altro/Non so,People/Laura Pausini/selected/im_17.jpg,8,15,2,28,Laura Pausini,Laura\nPausini,1,385.299825912143,154.119930364857,,0.657582018050562,2
Che lavoro fa?,1 = Presentatore TV/attore\n2 = Cantante/Musicista\n3 = Politico/Sportivo\n4 = Altro/Non so,People/Giorgia Meloni/selected/im_17.jpg,8,16,2,28,Giorgia Meloni,Giorgia\nMeloni,1,387.815496813379,155.126198725352,,0.651824286752799,3
Quanto attraente?,1 = Moltissimo\n2 = Molto\n3 = Poco\n4 = Pochissimo,People/Angelino Alfano/selected/im_14.jpg,2,9,2,29,Angelino Alfano,Angelino\nAlfano,1,402.509801959023,161.003920783609,,0.00151204072062683,4
Quanto attraente?,1 = Moltissimo\n2 = Molto\n3 = Poco\n4 = Pochissimo,People/Giorgio Napolitano/selected/im_x2.jpg,2,10,2,29,Giorgio Napolitano,Giorgio\nNapolitano,1,405.025487830959,162.010195132384,,0.941861499636616,2
Quanto attraente?,1 = Moltissimo\n2 = Molto\n3 = Poco\n4 = Pochissimo,People/Daniel Radcliffe/selected/im_08.jpg,2,11,2,29,Daniel Radcliffe,Daniel\nRadcliffe,1,407.541249839599,163.01649993584,,0.607352752469978,2
Quanto attraente?,1 = Moltissimo\n2 = Molto\n3 = Poco\n4 = Pochissimo,People/Laura Pausini/selected/im_36.jpg,2,12,2,29,Laura Pausini,Laura\nPausini,1,410.056840754523,164.022736301809,,0.473150690791044,3
Quanto attraente?,1 = Moltissimo\n2 = Molto\n3 = Poco\n4 = Pochissimo,People/Fiorello/selected/im_18.jpg,2,13,2,29,Fiorello,Fiorello,1,412.572546729971,165.029018691988,,0.817512297360736,3
Quanto attraente?,1 = Moltissimo\n2 = Molto\n3 = Poco\n4 = Pochissimo,People/Paolo Bonolis/selected/im_11.jpg,2,14,2,29,Paolo Bonolis,Paolo\nBonolis,1,415.088242439796,166.035296975918,,0.581884597288081,4
Quanto attraente?,1 = Moltissimo\n2 = Molto\n3 = Poco\n4 = Pochissimo,People/George Clooney/selected/im_08 (1).jpg,2,15,2,29,George Clooney,George\nClooney,1,417.603918046109,167.041567218444,,0.806531930365054,1
Quanto attraente?,1 = Moltissimo\n2 = Molto\n3 = Poco\n4 = Pochissimo,People/Michelle Hunziker/selected/im_11.jpg,2,16,2,29,Michelle Hunziker,Michelle\nHunziker,1,420.119624449292,168.047849779717,,,
Memoria remota?,1 = Moltissimo\n2 = Molto\n3 = Poco\n4 = Pochissimo,People/Cameron Diaz/selected/im_32.jpg,1,9,2,30,Cameron Diaz,Cameron\nDiaz,1,435.01398691133,174.005594764532,,1.00938363488603,3
Memoria remota?,1 = Moltissimo\n2 = Molto\n3 = Poco\n4 = Pochissimo,People/Roberto Maroni/selected/im_31.jpg,1,10,2,30,Roberto Maroni,Roberto\nMaroni,1,437.562802942812,175.025121177125,,0.890993626759155,3
Memoria remota?,1 = Moltissimo\n2 = Molto\n3 = Poco\n4 = Pochissimo,People/Giorgio Napolitano/selected/im_06.jpg,1,11,2,30,Giorgio Napolitano,Giorgio\nNapolitano,1,440.078519611617,176.031407844647,,0.8746858291629,2
Memoria remota?,1 = Moltissimo\n2 = Molto\n3 = Poco\n4 = Pochissimo,People/Justin Bieber/selected/im_32.jpg,1,12,2,30,Justin Bieber,Justin\nBieber,1,442.594230292142,177.037692116857,,0.85955430086824,2
Memoria remota?,1 = Moltissimo\n2 = Molto\n3 = Poco\n4 = Pochissimo,People/Brad Pitt/selected/im_12.jpg,1,13,2,30,Brad Pitt,Brad\nPitt,1,445.109911031267,178.043964412507,,0.843531802044708,2
Memoria remota?,1 = Moltissimo\n2 = Molto\n3 = Poco\n4 = Pochissimo,People/Filippo Inzaghi/selected/im_03.jpg,1,14,2,30,Filippo Inzaghi,Filippo\nInzaghi,1,447.625542580949,179.050217032379,,0.468493947559637,1
Memoria remota?,1 = Moltissimo\n2 = Molto\n3 = Poco\n4 = Pochissimo,People/Johnny Depp/selected/im_09.jpg,1,15,2,30,Johnny Depp,Johnny\nDepp,1,450.141231447025,180.05649257881,,0.812577099105965,2
Memoria remota?,1 = Moltissimo\n2 = Molto\n3 = Poco\n4 = Pochissimo,People/Romano Prodi/selected/im_12.jpg,1,16,2,30,Romano Prodi,Romano\nProdi,1,452.65693613927,181.062774455708,,0.797265922408769,2
Quanto familiare?,1 = Moltissimo\n2 = Molto\n3 = Poco\n4 = Pochissimo,People/Donald Trump/selected/im_06.jpg,5,9,2,31,Donald Trump,Donald\nTrump,1,467.517865178151,187.00714607126,,1.84702382480009,1
Quanto familiare?,1 = Moltissimo\n2 = Molto\n3 = Poco\n4 = Pochissimo,People/Arnold Schwarzenegger/selected/im_45.jpg,5,10,2,31,Arnold Schwarzenegger,Arnold\nSchwarzenegger,1,470.899846015655,188.359938406262,,0.0555725223489389,3
Quanto familiare?,1 = Moltissimo\n2 = Molto\n3 = Poco\n4 = Pochissimo,People/Angelino Alfano/selected/im_73.jpg,5,11,2,31,Angelino Alfano,Angelino\nAlfano,1,473.415510073142,189.366204029257,,0.0400859745927846,2
Quanto familiare?,1 = Moltissimo\n2 = Molto\n3 = Poco\n4 = Pochissimo,People/Cameron Diaz/selected/im_14.jpg,5,12,2,31,Cameron Diaz,Cameron\nDiaz,1,475.931211343513,190.372484537405,,0.0241734034816545,2
Quanto familiare?,1 = Moltissimo\n2 = Molto\n3 = Poco\n4 = Pochissimo,People/Matt Damon/selected/im_09.jpg,5,13,2,31,Matt Damon,Matt\nDamon,1,478.446922024038,191.378768809615,,0.0084421917108557,3
Quanto familiare?,1 = Moltissimo\n2 = Molto\n3 = Poco\n4 = Pochissimo,People/Paolo Bonolis/selected/im_20.jpg,5,14,2,31,Paolo Bonolis,Paolo\nBonolis,1,480.962583087386,192.385033234954,,0.00144873604540408,3
Quanto familiare?,1 = Moltissimo\n2 = Molto\n3 = Poco\n4 = Pochissimo,People/Johnny Depp/selected/im_27.jpg,5,15,2,31,Johnny Depp,Johnny\nDepp,1,483.478283074554,193.391313229822,,0.00144360323383808,3
Quanto familiare?,1 = Moltissimo\n2 = Molto\n3 = Poco\n4 = Pochissimo,People/Michael Jackson/selected/im_28.jpg,5,16,2,31,Michael Jackson,Michael\nJackson,1,485.994052782411,194.397621112965,,0.00147183369654158,2
Stesso nome?,1 = nome diverso\n2 = Stesso nome,Monuments/Palazzo vecchio.jpg,14,9,2,32,Palazzo vecchio,Palazzo\nvecchio,2,500.021895290645,200.008758116258,,0.00165062663108984,1
Stesso nome?,1 = nome diverso\n2 = Stesso nome,Monuments/Palazzo vecchio.jpg,14,10,2,32,Palazzo vecchio,Palazzo\nvecchio,2,502.537526412592,201.015010565037,,0.342547585439661,1
Stesso nome?,1 = nome diverso\n2 = Stesso nome,Monuments/Arena di Verona.jpg,14,11,2,32,Arena di Verona,Arena\ndi Verona,2,505.053202874374,202.02128114975,,0.206346293682145,2
Stesso nome?,1 = nome diverso\n2 = Stesso nome,Monuments/Sfinge.jpg,14,12,2,32,Sfinge,Sfinge,2,507.568875058813,203.027550023525,,0.371294323965685,2
Stesso nome?,1 = nome diverso\n2 = Stesso nome,Monuments/Piazza di Spagna.jpg,14,13,2,32,Piazza di Spagna,Piazza\ndi Spagna,2,510.084593010822,204.033837204329,,0.3571132212669,2
Stesso nome?,1 = nome diverso\n2 = Stesso nome,Monuments/Piazza di Spagna.jpg,14,14,2,32,Piazza di Spagna,Piazza\ndi Spagna,2,512.600291714787,205.040116685915,,0.401400829804516,1
Stesso nome?,1 = nome diverso\n2 = Stesso nome,Monuments/Castel SantAngelo.jpg,14,15,2,32,Castel SantAngelo,Castel\nSantAngelo,2,515.115977586723,206.046391034689,,0.206610205740162,2
Stesso nome?,1 = nome diverso\n2 = Stesso nome,Monuments/Tour Eiffel.jpg,14,16,2,32,Tour Eiffel,Tour\nEiffel,2,517.631683562171,207.052673424868,,0.0904769237349683,2
Stesso nome?,1 = nome diverso\n2 = Stesso nome,Monuments/Duomo di Milano.jpg,15,17,3,33,Duomo di Milano,Duomo\ndi Milano,2,12.511733179349,5.0046932717396,,0.00156764617804583,1
Stesso nome?,1 = nome diverso\n2 = Stesso nome,Monuments/Duomo di Milano.jpg,15,18,3,33,Duomo di Milano,Duomo\ndi Milano,2,15.0274391547973,6.01097566191893,,0.26172719106853,1
Stesso nome?,1 = nome diverso\n2 = Stesso nome,Monuments/Ponte di Rialto.jpg,15,19,3,33,Ponte di Rialto,Ponte\ndi Rialto,2,17.5430955130673,7.01723820522693,,0.425677744985023,2
Stesso nome?,1 = nome diverso\n2 = Stesso nome,Monuments/Piazza San Marco .jpg,15,20,3,33,Piazza San Marco,Piazza\nSan Marco,2,20.0587869455494,8.02351477821976,,0.250873433423294,2
Stesso nome?,1 = nome diverso\n2 = Stesso nome,Monuments/Mart.jpg,15,21,3,33,Mart,Mart,2,22.5745074639635,9.02980298558541,,0.45472133110934,2
Stesso nome?,1 = nome diverso\n2 = Stesso nome,Monuments/Tour Eiffel.jpg,15,22,3,33,Tour Eiffel,Tour\nEiffel,2,25.0901548398137,10.0360619359255,,0.0994969844732623,2
Stesso nome?,1 = nome diverso\n2 = Stesso nome,Monuments/Tower Bridge.jpg,15,23,3,33,Tower Bridge,Tower\nBridge,2,27.6058813465074,11.042352538603,,0.223389794259674,2
Stesso nome?,1 = nome diverso\n2 = Stesso nome,Monuments/Tower Bridge.jpg,15,24,3,33,Tower Bridge,Tower\nBridge,2,30.1215693571153,12.0486277428461,,0.0682505667477926,1
Cognome comune?,1 = Moltissimo\n2 = Molto\n3 = Poco\n4 = Pochissimo,People/Fiorello/selected/im_77.jpg,10,17,3,34,Fiorello,Fiorello,1,45.0157350613799,18.006294024552,,0.00154839813467333,3
Cognome comune?,1 = Moltissimo\n2 = Molto\n3 = Poco\n4 = Pochissimo,People/Silvio Berlusconi/selected/im_08.jpg,10,18,3,34,Silvio Berlusconi,Silvio\nBerlusconi,1,47.5314119508962,19.0125647803585,,1.92312930407616,3
Cognome comune?,1 = Moltissimo\n2 = Molto\n3 = Poco\n4 = Pochissimo,People/Donald Trump/selected/im_14.jpg,10,19,3,34,Donald Trump,Donald\nTrump,1,50.9800620214723,20.3920248085889,,1.22468240728858,2
Cognome comune?,1 = Moltissimo\n2 = Molto\n3 = Poco\n4 = Pochissimo,People/Arnold Schwarzenegger/selected/im_11.jpg,10,20,3,34,Arnold Schwarzenegger,Arnold\nSchwarzenegger,1,53.7457072586508,21.4982829034603,,1.10943795714093,3
Cognome comune?,1 = Moltissimo\n2 = Molto\n3 = Poco\n4 = Pochissimo,People/Roberto Maroni/selected/im_37.jpg,10,21,3,34,Roberto Maroni,Roberto\nMaroni,1,56.3946233799566,22.5578493519826,,0.00153086102909583,3
Cognome comune?,1 = Moltissimo\n2 = Molto\n3 = Poco\n4 = Pochissimo,People/Sandra Bullock/selected/im_08.jpg,10,22,3,34,Sandra Bullock,Sandra\nBullock,1,58.9103203729842,23.5641281491937,,0.00145258565407858,2
Cognome comune?,1 = Moltissimo\n2 = Molto\n3 = Poco\n4 = Pochissimo,People/Mike Tyson/selected/im_04.jpg,10,23,3,34,Mike Tyson,Mike\nTyson,1,61.426122588648,24.5704490354592,,0.00145386885651533,2
Cognome comune?,1 = Moltissimo\n2 = Molto\n3 = Poco\n4 = Pochissimo,People/Michael Jackson/selected/im_06.jpg,10,24,3,34,Michael Jackson,Michael\nJackson,1,63.9417062320886,25.5766824928354,,0.00144445870228083,2
Stesso nome?,1 = Nome diverso\n2 = Stesso nome,People/Johnny Depp/selected/im_68.jpg,11,17,3,35,Johnny Depp,Johnny\nDepp,1,77.519789982463,31.0079159929852,,0.00153599384066183,1
Stesso nome?,1 = Nome diverso\n2 = Stesso nome,People/Britney Spears/selected/im_24.jpg,11,18,3,35,Britney Spears,Britney\nSpears,1,80.0354574618245,32.0141829847298,,0.170870011548686,2
Stesso nome?,1 = Nome diverso\n2 = Stesso nome,People/Britney Spears/selected/im_24.jpg,11,19,3,35,Britney Spears,Britney\nSpears,1,82.55118011891,33.020472047564,,0.536694897129564,1
Stesso nome?,1 = Nome diverso\n2 = Stesso nome,People/Daniel Radcliffe/selected/im_02.jpg,11,20,3,35,Daniel Radcliffe,Daniel\nRadcliffe,1,85.0668193678089,34.0267277471236,,0.421311861072354,2
Stesso nome?,1 = Nome diverso\n2 = Stesso nome,People/Michelle Obama/selected/im_28.jpg,11,21,3,35,Michelle Obama,Michelle\nObama,1,87.5825591342659,35.0330236537064,,0.366045596475487,2
Stesso nome?,1 = Nome diverso\n2 = Stesso nome,People/Michelle Obama/selected/im_28.jpg,11,22,3,35,Michelle Obama,Michelle\nObama,1,90.0982231917537,36.0392892767015,,0.330207878865622,1
Stesso nome?,1 = Nome diverso\n2 = Stesso nome,People/Donald Trump/selected/im_18.jpg,11,23,3,35,Donald Trump,Donald\nTrump,1,92.6139017922064,37.0455607168826,,0.2547606826638,2
Stesso nome?,1 = Nome diverso\n2 = Stesso nome,People/Donald Trump/selected/im_18.jpg,11,24,3,35,Donald Trump,Donald\nTrump,1,95.129574832114,38.0518299328456,,0.279668933658286,1
Quanto amichevole?,1 = Moltissimo\n2 = Molto\n3 = Poco\n4 = Pochissimo,People/Robin Williams/selected/im_10.jpg,3,17,3,36,Robin Williams,Robin\nWilliams,1,110.00707857479,44.0028314299159,,0.00149920869171183,1
Quanto amichevole?,1 = Moltissimo\n2 = Molto\n3 = Poco\n4 = Pochissimo,People/Sandra Bullock/selected/im_03.jpg,3,18,3,36,Sandra Bullock,Sandra\nBullock,1,112.522775995552,45.0091103982208,,0.526852731082727,2
Quanto amichevole?,1 = Moltissimo\n2 = Molto\n3 = Poco\n4 = Pochissimo,People/Silvio Berlusconi/selected/Silvio Berlusconi_8.jpg,3,19,3,36,Silvio Berlusconi,Silvio\nBerlusconi,1,115.038462295222,46.0153849180888,,0.911320415757473,4
Quanto amichevole?,1 = Moltissimo\n2 = Molto\n3 = Poco\n4 = Pochissimo,People/Paolo Bonolis/selected/im_16.jpg,3,20,3,36,Paolo Bonolis,Paolo\nBonolis,1,117.554156721845,47.0216626887379,,0.895603319218026,4
Quanto amichevole?,1 = Moltissimo\n2 = Molto\n3 = Poco\n4 = Pochissimo,People/Giorgio Napolitano/selected/im_07.jpg,3,21,3,36,Giorgio Napolitano,Giorgio\nNapolitano,1,120.069859275418,48.0279437101673,,0.560009837889083,3
Quanto amichevole?,1 = Moltissimo\n2 = Molto\n3 = Poco\n4 = Pochissimo,People/Donald Trump/selected/im_64.jpg,3,22,3,36,Donald Trump,Donald\nTrump,1,122.585543436417,49.0342173745668,,0.604053637880497,4
Quanto amichevole?,1 = Moltissimo\n2 = Molto\n3 = Poco\n4 = Pochissimo,People/Brad Pitt/selected/im_10.jpg,3,23,3,36,Brad Pitt,Brad\nPitt,1,125.101240857179,50.0404963428717,,0.388784379143544,3
Quanto amichevole?,1 = Moltissimo\n2 = Molto\n3 = Poco\n4 = Pochissimo,People/Matteo Salvini/selected/im_14.jpg,3,24,3,36,Matteo Salvini,Matteo\nSalvini,1,127.616913897087,51.0467655588347,,0.292933401770824,4
Volto distintivo?,1 = Moltissimo\n2 = Molto\n3 = Poco\n4 = Pochissimo,People/Angelino Alfano/selected/im_14.jpg,9,17,3,37,Angelino Alfano,Angelino\nAlfano,1,142.511102699003,57.0044410796012,,1.77135206809544,1
Volto distintivo?,1 = Moltissimo\n2 = Molto\n3 = Poco\n4 = Pochissimo,People/Rihanna/selected/im_15.jpg,9,18,3,37,Rihanna,Rihanna,1,145.809822062535,58.3239288250139,,1.41242910304118,2
Volto distintivo?,1 = Moltissimo\n2 = Molto\n3 = Poco\n4 = Pochissimo,People/Mike Tyson/selected/im_01.jpg,9,19,3,37,Mike Tyson,Mike\nTyson,1,148.758662474871,59.5034649899482,,1.09328072201606,1
Volto distintivo?,1 = Moltissimo\n2 = Molto\n3 = Poco\n4 = Pochissimo,People/Barack Obama/selected/im_11.jpg,9,20,3,37,Barack Obama,Barack\nObama,1,151.390974378716,60.5563897514863,,1.07179220668149,3
Volto distintivo?,1 = Moltissimo\n2 = Molto\n3 = Poco\n4 = Pochissimo,People/Paolo Bonolis/selected/im_38.jpg,9,21,3,37,Paolo Bonolis,Paolo\nBonolis,1,153.989959365242,61.5959837460969,,1.09298344668241,4
Volto distintivo?,1 = Moltissimo\n2 = Molto\n3 = Poco\n4 = Pochissimo,People/Justin Bieber/selected/im_32.jpg,9,22,3,37,Justin Bieber,Justin\nBieber,1,156.622282390179,62.6489129560718,,1.09991787501622,4
Volto distintivo?,1 = Moltissimo\n2 = Molto\n3 = Poco\n4 = Pochissimo,People/Britney Spears/selected/im_13.jpg,9,23,3,37,Britney Spears,Britney\nSpears,1,159.254609264725,63.7018437058899,,0.688305744471108,3
Volto distintivo?,1 = Moltissimo\n2 = Molto\n3 = Poco\n4 = Pochissimo,People/Arnold Schwarzenegger/selected/im_12.jpg,9,24,3,37,Arnold Schwarzenegger,Arnold\nSchwarzenegger,1,162.486733393217,64.9946933572866,,0.956016082809583,2
Stesso nome?,1 = Nome diverso\n2 = Stesso nome,People/Brad Pitt/selected/im_04.jpg,13,17,3,38,Brad Pitt,Brad\nPitt,1,177.514233714017,71.0056934856069,,0.00153214423153258,1
Stesso nome?,1 = Nome diverso\n2 = Stesso nome,People/Brad Pitt/selected/im_04.jpg,13,18,3,38,Brad Pitt,Brad\nPitt,1,180.029950810557,72.0119803242227,,0.00146327901074983,1
Stesso nome?,1 = Nome diverso\n2 = Stesso nome,People/Robin Williams/selected/im_14.jpg,13,19,3,38,Robin Williams,Robin\nWilliams,1,182.545566106335,73.0182264425339,,0.368587621369443,2
Stesso nome?,1 = Nome diverso\n2 = Stesso nome,People/Laura Pausini/selected/im_07.jpg,13,20,3,38,Laura Pausini,Laura\nPausini,1,185.061219898199,74.0244879592798,,0.232786688909073,2
Stesso nome?,1 = Nome diverso\n2 = Stesso nome,People/Arnold Schwarzenegger/selected/im_01.jpg,13,21,3,38,Arnold Schwarzenegger,Arnold\nSchwarzenegger,1,187.576948115831,75.0307792463323,,0.237082424398068,2
Stesso nome?,1 = Nome diverso\n2 = Stesso nome,People/Hillary Clinton/selected/im_13.jpg,13,22,3,38,Hillary Clinton,Hillary\nClinton,1,190.092578810044,76.0370315240174,,0.161377732152687,2
Stesso nome?,1 = Nome diverso\n2 = Stesso nome,People/Daniel Radcliffe/selected/im_07.jpg,13,23,3,38,Daniel Radcliffe,Daniel\nRadcliffe,1,192.608299328458,77.0433197313831,,0.16562983874428,2
Stesso nome?,1 = Nome diverso\n2 = Stesso nome,People/Daniel Radcliffe/selected/im_07.jpg,13,24,3,38,Daniel Radcliffe,Daniel\nRadcliffe,1,195.123991616408,78.0495966465633,,0.150579579964869,1
Quanto familiare?,1 = Moltissimo\n2 = Molto\n3 = Poco\n4 = Pochissimo,People/Laura Pausini/selected/im_07.jpg,5,17,3,39,Laura Pausini,Laura\nPausini,1,210.018193678087,84.0072774712347,,1.64890799435398,2
Quanto familiare?,1 = Moltissimo\n2 = Molto\n3 = Poco\n4 = Pochissimo,People/Bill Clinton/selected/im_12.jpg,5,18,3,39,Bill Clinton,Bill\nClinton,1,213.200273749947,85.2801094999786,,0.237385688010363,4
Quanto familiare?,1 = Moltissimo\n2 = Molto\n3 = Poco\n4 = Pochissimo,People/Barack Obama/selected/im_06.jpg,5,19,3,39,Barack Obama,Barack\nObama,1,215.715950211729,86.2863800846915,,1.4718182984725,1
Quanto familiare?,1 = Moltissimo\n2 = Molto\n3 = Poco\n4 = Pochissimo,People/Giorgia Meloni/selected/im_24.jpg,5,20,3,39,Giorgia Meloni,Giorgia\nMeloni,1,218.714764960007,87.4859059840028,,0.00147782197655033,2
Quanto familiare?,1 = Moltissimo\n2 = Molto\n3 = Poco\n4 = Pochissimo,People/Julia Roberts/selected/im_09.jpg,5,21,3,39,Julia Roberts,Julia\nRoberts,1,221.23046451944,88.4921858077762,,0.00149664228592883,3
Quanto familiare?,1 = Moltissimo\n2 = Molto\n3 = Poco\n4 = Pochissimo,People/Paris Hilton/selected/im_14.jpg,5,22,3,39,Paris Hilton,Paris\nHilton,1,223.74616664528,89.4984666581118,,0.00145215791872033,4
Quanto familiare?,1 = Moltissimo\n2 = Molto\n3 = Poco\n4 = Pochissimo,People/Justin Bieber/selected/im_31.jpg,5,23,3,39,Justin Bieber,Justin\nBieber,1,226.261834552377,90.5047338209506,,1.0066983190045,3
Quanto familiare?,1 = Moltissimo\n2 = Molto\n3 = Poco\n4 = Pochissimo,People/Sandra Bullock/selected/im_04.jpg,5,24,3,39,Sandra Bullock,Sandra\nBullock,1,228.794185807776,91.5176743231104,,0.00150733564260008,4
Stesso nome?,1 = nome diverso\n2 = Stesso nome,Monuments/Arco di Trionfo.jpg,16,17,3,40,Arco di Trionfo,Arco\ndi Trionfo,2,242.52221566363,97.0088862654518,,0.00151546259439783,1
Stesso nome?,1 = nome diverso\n2 = Stesso nome,Monuments/Ponte vecchio.jpg,16,18,3,40,Ponte vecchio,Ponte\nvecchio,2,245.037940887121,98.0151763548483,,0.430751101415808,2
Stesso nome?,1 = nome diverso\n2 = Stesso nome,Monuments/Piramidi di Ghiza.jpg,16,19,3,40,Piramidi di Ghiza,Piramidi\ndi Ghiza,2,247.553581846957,99.0214327387826,,0.355377047777438,2
Stesso nome?,1 = nome diverso\n2 = Stesso nome,Monuments/Acropoli.jpg,16,20,3,40,Acropoli,Acropoli,2,250.069336156379,100.027734462552,,0.279486291115973,2
Stesso nome?,1 = nome diverso\n2 = Stesso nome,Monuments/Acropoli.jpg,16,21,3,40,Acropoli,Acropoli,2,252.584999786133,101.033999914453,,0.204513452243191,1
Stesso nome?,1 = nome diverso\n2 = Stesso nome,Monuments/Golden Gate.jpg,16,22,3,40,Golden Gate,Golden\nGate,2,255.100615081911,102.040246032764,,0.188472133110736,2
Stesso nome?,1 = nome diverso\n2 = Stesso nome,Monuments/Pantheon.jpg,16,23,3,40,Pantheon,Pantheon,2,257.616335600325,103.04653424013,,0.553435134094798,2
Stesso nome?,1 = nome diverso\n2 = Stesso nome,Monuments/Notre Dame.jpg,16,24,3,40,Notre Dame,Notre\nDame,2,260.132047136319,104.052818854528,,0.0979682621155007,2
Quanto attraente?,1 = Moltissimo\n2 = Molto\n3 = Poco\n4 = Pochissimo,People/Bill Gates/selected/im_43.jpg,2,17,3,41,Bill Gates,Bill\nGates,1,275.009582959066,110.003833183626,,1.45055776551635,4
Quanto attraente?,1 = Moltissimo\n2 = Molto\n3 = Poco\n4 = Pochissimo,People/Matt Damon/selected/im_13.jpg,2,18,3,41,Matt Damon,Matt\nDamon,1,277.991694683263,111.196677873305,,0.458800633046849,2
Quanto attraente?,1 = Moltissimo\n2 = Molto\n3 = Poco\n4 = Pochissimo,People/Arnold Schwarzenegger/selected/im_12.jpg,2,19,3,41,Arnold Schwarzenegger,Arnold\nSchwarzenegger,1,280.507382693871,112.202953077548,,0.442669061979359,4
Quanto attraente?,1 = Moltissimo\n2 = Molto\n3 = Poco\n4 = Pochissimo,People/George Bush/selected/im_03.jpg,2,20,3,41,George Bush,George\nBush,1,283.02316352282,113.209265409128,,0.407815133239637,4
Quanto attraente?,1 = Moltissimo\n2 = Molto\n3 = Poco\n4 = Pochissimo,People/Tom Cruise/selected/im_17.jpg,2,21,3,41,Tom Cruise,Tom\nCruise,1,285.538814748279,114.215525899311,,0.401809316053004,3
Quanto attraente?,1 = Moltissimo\n2 = Molto\n3 = Poco\n4 = Pochissimo,People/Donald Trump/selected/im_24.jpg,2,22,3,41,Donald Trump,Donald\nTrump,1,288.054455708114,115.221782283246,,0.38671970571886,4
Quanto attraente?,1 = Moltissimo\n2 = Molto\n3 = Poco\n4 = Pochissimo,People/Robin Williams/selected/im_14.jpg,2,23,3,41,Robin Williams,Robin\nWilliams,1,290.570266050729,116.228106420292,,0.370506437400763,1
Quanto attraente?,1 = Moltissimo\n2 = Molto\n3 = Poco\n4 = Pochissimo,People/Matteo Renzi/selected/im_16.jpg,2,24,3,41,Matteo Renzi,Matteo\nRenzi,1,293.085869369948,117.234347747979,,0.35510030369187,4
Quanto affidabile?,1 = Moltissimo\n2 = Molto\n3 = Poco\n4 = Pochissimo,People/Justin Bieber/selected/im_38.jpg,4,17,3,42,Justin Bieber,Justin\nBieber,1,307.513603661405,123.005441464562,,1.0500645878783,3
Quanto affidabile?,1 = Moltissimo\n2 = Molto\n3 = Poco\n4 = Pochissimo,People/Rihanna/selected/im_16 (1).jpg,4,18,3,42,Rihanna,Rihanna,1,310.095879207836,124.038351683134,,0.837804439882348,2
Quanto affidabile?,1 = Moltissimo\n2 = Molto\n3 = Poco\n4 = Pochissimo,People/Giorgio Napolitano/selected/im_41.jpg,4,19,3,42,Giorgio Napolitano,Giorgio\nNapolitano,1,312.611584327815,125.044633731126,,0.822170323795035,1
Quanto affidabile?,1 = Moltissimo\n2 = Molto\n3 = Poco\n4 = Pochissimo,People/Tom Cruise/selected/im_11.jpg,4,20,3,42,Tom Cruise,Tom\nCruise,1,315.127276615767,126.050910646307,,0.766606356131888,2
Quanto affidabile?,1 = Moltissimo\n2 = Molto\n3 = Poco\n4 = Pochissimo,People/Julia Roberts/selected/im_02.jpg,4,21,3,42,Julia Roberts,Julia\nRoberts,1,317.642922708413,127.057169083365,,0.731444030968305,1
Quanto affidabile?,1 = Moltissimo\n2 = Molto\n3 = Poco\n4 = Pochissimo,People/Bill Clinton/selected/im_19.jpg,4,22,3,42,Bill Clinton,Bill\nClinton,1,320.158618845973,128.063447538389,,0.435439496985055,4
Quanto affidabile?,1 = Moltissimo\n2 = Molto\n3 = Poco\n4 = Pochissimo,People/Sabrina Ferilli/selected/im_03.jpg,4,23,3,42,Sabrina Ferilli,Sabrina\nFerilli,1,322.674402241328,129.069760896531,,0.719934984387692,2
Quanto affidabile?,1 = Moltissimo\n2 = Molto\n3 = Poco\n4 = Pochissimo,People/Jim Carrey/selected/im_07.jpg,4,24,3,42,Jim Carrey,Jim\nCarrey,1,325.190053466786,130.076021386714,,0.704542538175701,3
Nome comune?,1 = Moltissimo\n2 = Molto\n3 = Poco\n4 = Pochissimo,People/Daniel Radcliffe/selected/im_05.jpg,6,17,3,43,Daniel Radcliffe,Daniel\nRadcliffe,1,340.01762179734,136.007048718936,,1.44805167030245,1
Nome comune?,1 = Moltissimo\n2 = Molto\n3 = Poco\n4 = Pochissimo,People/Barack Obama/selected/im_19.jpg,6,18,3,43,Barack Obama,Barack\nObama,1,342.999756619188,137.199902647675,,0.435428375893025,3
Nome comune?,1 = Moltissimo\n2 = Molto\n3 = Poco\n4 = Pochissimo,People/Robin Williams/selected/im_24.jpg,6,19,3,43,Robin Williams,Robin\nWilliams,1,345.515432225502,138.206172890201,,0.419980751956246,2
Nome comune?,1 = Moltissimo\n2 = Molto\n3 = Poco\n4 = Pochissimo,People/Matt Damon/selected/im_21.jpg,6,20,3,43,Matt Damon,Matt\nDamon,1,348.031150605244,139.212460242098,,0.406272295649615,1
Nome comune?,1 = Moltissimo\n2 = Molto\n3 = Poco\n4 = Pochissimo,People/Filippo Inzaghi/selected/im_14.jpg,6,21,3,43,Filippo Inzaghi,Filippo\nInzaghi,1,350.546882672484,140.218753068994,,0.390921339664601,1
Nome comune?,1 = Moltissimo\n2 = Molto\n3 = Poco\n4 = Pochissimo,People/Cameron Diaz/selected/im_78.jpg,6,22,3,43,Cameron Diaz,Cameron\nDiaz,1,353.062500534668,141.225000213867,,0.374881303733673,3
Nome comune?,1 = Moltissimo\n2 = Molto\n3 = Poco\n4 = Pochissimo,People/Johnny Depp/selected/im_16.jpg,6,23,3,43,Johnny Depp,Johnny\nDepp,1,355.578169724967,142.231267889987,,0.359988878908553,2
Nome comune?,1 = Moltissimo\n2 = Molto\n3 = Poco\n4 = Pochissimo,People/Angelina Jolie/selected/im_15.jpg,6,24,3,43,Angelina Jolie,Angelina\nJolie,1,358.093915907438,143.237566362975,,0.344617391676366,4
Memoria remota?,1 = Moltissimo\n2 = Molto\n3 = Poco\n4 = Pochissimo,People/Bill Clinton/selected/im_27.jpg,1,17,3,44,Bill Clinton,Bill\nClinton,1,372.521576200864,149.008630480346,,1.26709739509806,2
Memoria remota?,1 = Moltissimo\n2 = Molto\n3 = Poco\n4 = Pochissimo,People/Mike Tyson/selected/im_04.jpg,1,18,3,44,Mike Tyson,Mike\nTyson,1,375.320485478421,150.128194191368,,0.598339535480591,2
Memoria remota?,1 = Moltissimo\n2 = Molto\n3 = Poco\n4 = Pochissimo,People/Barack Obama/selected/im_12.jpg,1,19,3,44,Barack Obama,Barack\nObama,1,377.836219256598,151.134487702639,,0.612723384233504,2
Memoria remota?,1 = Moltissimo\n2 = Molto\n3 = Poco\n4 = Pochissimo,People/Matteo Salvini/selected/im_11.jpg,1,20,3,44,Matteo Salvini,Matteo\nSalvini,1,380.351899567988,152.140759827195,,0.597265494674502,3
Memoria remota?,1 = Moltissimo\n2 = Molto\n3 = Poco\n4 = Pochissimo,People/Angelino Alfano/selected/im_68.jpg,1,21,3,44,Angelino Alfano,Angelino\nAlfano,1,382.867547799307,153.147019119723,,0.582257581590966,4
Memoria remota?,1 = Moltissimo\n2 = Molto\n3 = Poco\n4 = Pochissimo,People/Donald Trump/selected/im_15.jpg,1,22,3,44,Donald Trump,Donald\nTrump,1,385.383295692716,154.153318277086,,0.545803926600456,4
Memoria remota?,1 = Moltissimo\n2 = Molto\n3 = Poco\n4 = Pochissimo,People/Matt Damon/selected/im_19.jpg,1,23,3,44,Matt Damon,Matt\nDamon,1,387.898979425981,155.159591770392,,0.53103853886023,3
Memoria remota?,1 = Moltissimo\n2 = Molto\n3 = Poco\n4 = Pochissimo,People/Daniel Radcliffe/selected/im_16.jpg,1,24,3,44,Daniel Radcliffe,Daniel\nRadcliffe,1,390.414647760811,156.165859104325,,0.51503571581361,2
Stesso nome?,1 = Nome diverso\n2 = Stesso nome,People/Arnold Schwarzenegger/selected/im_45.jpg,12,17,3,45,Arnold Schwarzenegger,Arnold\nSchwarzenegger,1,405.00897643184,162.003590572736,,1.54157876726913,2
Stesso nome?,1 = Nome diverso\n2 = Stesso nome,People/Laura Pausini/selected/im_05.jpg,12,18,3,45,Laura Pausini,Laura\nPausini,1,408.091087300569,163.236434920228,,0.349165062663815,2
Stesso nome?,1 = Nome diverso\n2 = Stesso nome,People/Laura Pausini/selected/im_05.jpg,12,19,3,45,Laura Pausini,Laura\nPausini,1,410.606779160785,164.242711664314,,0.274001454296922,1
Stesso nome?,1 = Nome diverso\n2 = Stesso nome,People/Hillary Clinton/selected/im_13.jpg,12,20,3,45,Hillary Clinton,Hillary\nClinton,1,413.122491979982,165.248996791993,,0.237925488686415,2
Stesso nome?,1 = Nome diverso\n2 = Stesso nome,People/Hillary Clinton/selected/im_13.jpg,12,21,3,45,Hillary Clinton,Hillary\nClinton,1,415.638239445656,166.255295778263,,0.303130159544708,1
Stesso nome?,1 = Nome diverso\n2 = Stesso nome,People/George Bush/selected/im_15.jpg,12,22,3,45,George Bush,George\nBush,1,418.153863296121,167.261545318448,,0.127181231018767,2
Stesso nome?,1 = Nome diverso\n2 = Stesso nome,People/George Bush/selected/im_15.jpg,12,23,3,45,George Bush,George\nBush,1,420.669605628983,168.267842251593,,0.271430343470456,1
Stesso nome?,1 = Nome diverso\n2 = Stesso nome,People/Daniel Radcliffe/selected/im_05.jpg,12,24,3,45,Daniel Radcliffe,Daniel\nRadcliffe,1,423.185181145472,169.274072458189,,0.25567988365674,2
Che lavoro fa?,1 = Presentatore TV/attore\n2 = Cantante/Musicista\n3 = Politico/Sportivo\n4 = Altro/Non so,People/Michael Jackson/selected/im_15.jpg,8,17,3,46,Michael Jackson,Michael\nJackson,1,437.512932974036,175.005173189614,,0.00155994696069683,2
Che lavoro fa?,1 = Presentatore TV/attore\n2 = Cantante/Musicista\n3 = Politico/Sportivo\n4 = Altro/Non so,People/Rihanna/selected/im_31.jpg,8,18,3,46,Rihanna,Rihanna,1,440.028682150648,176.011472860259,,0.668196672227168,2
Che lavoro fa?,1 = Presentatore TV/attore\n2 = Cantante/Musicista\n3 = Politico/Sportivo\n4 = Altro/Non so,People/Brad Pitt/selected/im_15.jpg,8,19,3,46,Brad Pitt,Brad\nPitt,1,442.544317549938,177.017727019975,,0.652930835364714,1
Che lavoro fa?,1 = Presentatore TV/attore\n2 = Cantante/Musicista\n3 = Politico/Sportivo\n4 = Altro/Non so,People/Hillary Clinton/selected/im_31.jpg,8,20,3,46,Hillary Clinton,Hillary\nClinton,1,445.060063732409,178.024025492964,,0.837409641130762,3
Che lavoro fa?,1 = Presentatore TV/attore\n2 = Cantante/Musicista\n3 = Politico/Sportivo\n4 = Altro/Non so,People/Matteo Salvini/selected/im_77.jpg,8,21,3,46,Matteo Salvini,Matteo\nSalvini,1,447.575686299671,179.030274519868,,0.40210873005708,3
Che lavoro fa?,1 = Presentatore TV/attore\n2 = Cantante/Musicista\n3 = Politico/Sportivo\n4 = Altro/Non so,People/Matt Damon/selected/im_13.jpg,8,22,3,46,Matt Damon,Matt\nDamon,1,450.091420505582,180.036568202233,,0.426523375678698,1
Che lavoro fa?,1 = Presentatore TV/attore\n2 = Cantante/Musicista\n3 = Politico/Sportivo\n4 = Altro/Non so,People/Fiorello/selected/im_35.jpg,8,23,3,46,Fiorello,Fiorello,1,452.607120920484,181.042848368194,,0.830059027332027,1
Che lavoro fa?,1 = Presentatore TV/attore\n2 = Cantante/Musicista\n3 = Politico/Sportivo\n4 = Altro/Non so,People/Romano Prodi/selected/im_17.jpg,8,24,3,46,Romano Prodi,Romano\nProdi,1,455.122750759228,182.049100303691,,0.816578981136445,3
Quanti fatti ricordi?,1 = Moltissimo\n2 = Molto\n3 = Poco\n4 = Pochissimo,People/Silvio Berlusconi/selected/Silvio Berlusconi_8.jpg,7,17,3,47,Silvio Berlusconi,Silvio\nBerlusconi,1,470.016946404894,188.006778561957,,1.49570554771435,1
Quanti fatti ricordi?,1 = Moltissimo\n2 = Molto\n3 = Poco\n4 = Pochissimo,People/Britney Spears/selected/im_30 (1).jpg,7,18,3,47,Britney Spears,Britney\nSpears,1,473.04912485564,189.219649942256,,0.393074554086525,3
Quanti fatti ricordi?,1 = Moltissimo\n2 = Molto\n3 = Poco\n4 = Pochissimo,People/Giorgio Napolitano/selected/im_43.jpg,7,19,3,47,Giorgio Napolitano,Giorgio\nNapolitano,1,475.564815860388,190.225926344155,,0.377781769964713,3
Quanti fatti ricordi?,1 = Moltissimo\n2 = Molto\n3 = Poco\n4 = Pochissimo,People/Matt Damon/selected/im_19.jpg,7,20,3,47,Matt Damon,Matt\nDamon,1,478.080502160059,191.232200864023,,0.362458188972596,4
Quanti fatti ricordi?,1 = Moltissimo\n2 = Molto\n3 = Poco\n4 = Pochissimo,People/Matteo Salvini/selected/im_59.jpg,7,21,3,47,Matteo Salvini,Matteo\nSalvini,1,480.596185893323,192.238474357329,,1.43740835792778,2
Quanti fatti ricordi?,1 = Moltissimo\n2 = Molto\n3 = Poco\n4 = Pochissimo,People/Michelle Hunziker/selected/im_03.jpg,7,22,3,47,Michelle Hunziker,Michelle\nHunziker,1,483.561683989905,193.424673595962,,1.40319688609452,3
Quanti fatti ricordi?,1 = Moltissimo\n2 = Molto\n3 = Poco\n4 = Pochissimo,People/Paolo Bonolis/selected/im_22.jpg,7,23,3,47,Paolo Bonolis,Paolo\nBonolis,1,486.493897087129,194.597558834852,,1.15131100560302,3
Quanti fatti ricordi?,1 = Moltissimo\n2 = Molto\n3 = Poco\n4 = Pochissimo,People/Angelina Jolie/selected/im_33.jpg,7,24,3,47,Angelina Jolie,Angelina\nJolie,1,489.176155096454,195.670462038582,,0.669583386799786,2
Stesso nome?,1 = nome diverso\n2 = Stesso nome,Monuments/Tour Eiffel.jpg,14,17,3,48,Tour Eiffel,Tour\nEiffel,2,505.0200149707,202.00800598828,,0.00153556610621308,31
Stesso nome?,1 = nome diverso\n2 = Stesso nome,Monuments/Arco di Costantino.jpg,14,18,3,48,Arco di Costantino,Arco\ndi Costantino,2,507.535776123872,203.014310449549,,0.9026528080758,2
Stesso nome?,1 = nome diverso\n2 = Stesso nome,Monuments/Tower Bridge.jpg,14,19,3,48,Tower Bridge,Tower\nBridge,2,510.051367038796,204.020546815518,,0.336436545618199,2
Stesso nome?,1 = nome diverso\n2 = Stesso nome,Monuments/Campidoglio.jpg,14,20,3,48,Campidoglio,Campidoglio,2,512.567085418538,205.026834167415,,0.50155866375826,2
Stesso nome?,1 = nome diverso\n2 = Stesso nome,Monuments/Muraglia Cinese.jpg,14,21,3,48,Muraglia Cinese,Muraglia\nCinese,2,515.082753325634,206.033101330254,,0.285526327045773,2
Stesso nome?,1 = nome diverso\n2 = Stesso nome,Monuments/Pantheon.jpg,14,22,3,48,Pantheon,Pantheon,2,517.598451601865,207.039380640746,,0.350029085931965,2
Stesso nome?,1 = nome diverso\n2 = Stesso nome,Monuments/Pantheon.jpg,14,23,3,48,Pantheon,Pantheon,2,520.114122503101,208.04564900124,,0.195955772273919,1
Stesso nome?,1 = nome diverso\n2 = Stesso nome,Monuments/Ara Pacis.jpg,14,24,3,48,Ara Pacis,Ara\nPacis,2,522.629800248086,209.051920099234,,0.180316951109489,2
Stesso nome?,1 = nome diverso\n2 = Stesso nome,Monuments/Piramidi di Ghiza.jpg,14,25,4,49,Piramidi di Ghiza,Piramidi\ndi Ghiza,2,12.5115911715648,5.0046364686259,,0.00148680439724558,1
Stesso nome?,1 = nome diverso\n2 = Stesso nome,Monuments/Taj Mahal.jpg,14,26,4,49,Taj Mahal,Taj\nMahal,2,15.0272903032637,6.01091612130549,,0.824810299842284,2
Stesso nome?,1 = nome diverso\n2 = Stesso nome,Monuments/Piazza San Pietro.jpg,14,27,4,49,Piazza San Pietro,Piazza\nSan Pietro,2,17.54294922794,7.01717969117599,,0.209075238461992,2
Stesso nome?,1 = nome diverso\n2 = Stesso nome,Monuments/Piazza San Pietro.jpg,14,28,4,49,Piazza San Pietro,Piazza\nSan Pietro,2,20.0586671799483,8.02346687197933,,0.433496300098341,2
Stesso nome?,1 = nome diverso\n2 = Stesso nome,Monuments/Duomo di Trento.jpg,14,29,4,49,Duomo di Trento,Duomo\ndi Trento,2,22.5743650284448,9.02974601137794,,0.0778134223019151,2
Stesso nome?,1 = nome diverso\n2 = Stesso nome,Monuments/Duomo di Trento.jpg,14,30,4,49,Duomo di Trento,Duomo\ndi Trento,2,25.0899931562517,10.0359972625007,,0.162415415543364,1
Stesso nome?,1 = nome diverso\n2 = Stesso nome,Monuments/House of Parliament.jpg,14,31,4,49,House of Parliament,House\nof Parliament,2,27.6056850164678,11.0422740065871,,0.326709012361789,2
Stesso nome?,1 = nome diverso\n2 = Stesso nome,Monuments/Teatro dell Opera.jpg,14,32,4,49,Teatro dell Opera,Teatro\ndell Opera,2,30.1213914196505,12.0485565678602,,0.00143975362516358,2
Stesso nome?,1 = Nome diverso\n2 = Stesso nome,People/Daniel Radcliffe/selected/im_05.jpg,12,25,4,50,Daniel Radcliffe,Daniel\nRadcliffe,1,45.015589631721,18.0062358526884,,0.00158646648742433,1
Stesso nome?,1 = Nome diverso\n2 = Stesso nome,People/Cameron Diaz/selected/im_14.jpg,12,26,4,50,Cameron Diaz,Cameron\nDiaz,1,47.5312806364691,19.0125122545876,,0.0615655075071118,2
Stesso nome?,1 = Nome diverso\n2 = Stesso nome,People/Johnny Depp/selected/im_09.jpg,12,27,4,50,Johnny Depp,Johnny\nDepp,1,50.046938277942,20.0187753111768,,0.286201291757607,2
Stesso nome?,1 = Nome diverso\n2 = Stesso nome,People/Roberto Maroni/selected/im_10.jpg,12,28,4,50,Roberto Maroni,Roberto\nMaroni,1,52.5626759057277,21.0250703622911,,0.00145600752784958,2
Stesso nome?,1 = Nome diverso\n2 = Stesso nome,People/Paolo Bonolis/selected/im_22.jpg,12,29,4,50,Paolo Bonolis,Paolo\nBonolis,1,55.0783861585187,22.0313544634075,,0.11509260447383,2
Stesso nome?,1 = Nome diverso\n2 = Stesso nome,People/Giorgia Meloni/selected/im_17.jpg,12,30,4,50,Giorgia Meloni,Giorgia\nMeloni,1,57.5940540656147,23.0376216262459,,0.0991128790792573,2
Stesso nome?,1 = Nome diverso\n2 = Stesso nome,People/Donald Trump/selected/im_14.jpg,12,31,4,50,Donald Trump,Donald\nTrump,1,60.1097365156766,24.0438946062706,,0.0633264895841421,2
Stesso nome?,1 = Nome diverso\n2 = Stesso nome,People/Donald Trump/selected/im_14.jpg,12,32,4,50,Donald Trump,Donald\nTrump,1,62.6253680653581,25.0501472261432,,0.168621840113701,1
Nome comune?,1 = Moltissimo\n2 = Molto\n3 = Poco\n4 = Pochissimo,People/Paolo Bonolis/selected/im_13.jpg,6,25,4,51,Paolo Bonolis,Paolo\nBonolis,1,77.5196295821033,31.0078518328413,,0.00150348603528982,1
Nome comune?,1 = Moltissimo\n2 = Molto\n3 = Poco\n4 = Pochissimo,People/Giorgio Napolitano/selected/im_46.jpg,6,26,4,51,Giorgio Napolitano,Giorgio\nNapolitano,1,80.0353163095087,32.0141265238035,,0.359232216947021,1
Nome comune?,1 = Moltissimo\n2 = Molto\n3 = Poco\n4 = Pochissimo,People/Justin Bieber/selected/im_06.jpg,6,27,4,51,Justin Bieber,Justin\nBieber,1,82.5510235681595,33.0204094272638,,0.903758073484823,2
Nome comune?,1 = Moltissimo\n2 = Molto\n3 = Poco\n4 = Pochissimo,People/Julia Roberts/selected/im_13.jpg,6,28,4,51,Julia Roberts,Julia\nRoberts,1,85.0666290260488,34.0266516104195,,0.888136789426426,2
Nome comune?,1 = Moltissimo\n2 = Molto\n3 = Poco\n4 = Pochissimo,People/Brad Pitt/selected/im_11.jpg,6,29,4,51,Brad Pitt,Brad\nPitt,1,87.5823268745453,35.0329307498181,,0.812047564053501,3
Nome comune?,1 = Moltissimo\n2 = Molto\n3 = Poco\n4 = Pochissimo,People/Hillary Clinton/selected/im_10.jpg,6,30,4,51,Hillary Clinton,Hillary\nClinton,1,90.0981158304467,36.0392463321787,,0.776721416656073,3
Nome comune?,1 = Moltissimo\n2 = Molto\n3 = Poco\n4 = Pochissimo,People/Michelle Obama/selected/im_11.jpg,6,31,4,51,Michelle Obama,Michelle\nObama,1,92.6136892082641,37.0454756833056,,0.841692972325291,3
Nome comune?,1 = Moltissimo\n2 = Molto\n3 = Poco\n4 = Pochissimo,People/Mike Tyson/selected/im_11.jpg,6,32,4,51,Mike Tyson,Mike\nTyson,1,95.1293973223837,38.0517589289535,,0.825446768467373,2
Quanti fatti ricordi?,1 = Moltissimo\n2 = Molto\n3 = Poco\n4 = Pochissimo,People/Roberto Maroni/selected/im_10.jpg,7,25,4,52,Roberto Maroni,Roberto\nMaroni,1,110.006928867788,44.0027715471151,,1.01917532828611,3
Quanti fatti ricordi?,1 = Moltissimo\n2 = Molto\n3 = Poco\n4 = Pochissimo,People/Filippo Inzaghi/selected/im_33.jpg,7,26,4,52,Filippo Inzaghi,Filippo\nInzaghi,1,112.555951922665,45.0223807690661,,0.8998070918351,2
Quanti fatti ricordi?,1 = Moltissimo\n2 = Molto\n3 = Poco\n4 = Pochissimo,People/Jim Carrey/selected/im_105.jpg,7,27,4,52,Jim Carrey,Jim\nCarrey,1,115.071691261389,46.0286765045555,,0.606256469481195,3
Quanti fatti ricordi?,1 = Moltissimo\n2 = Molto\n3 = Poco\n4 = Pochissimo,People/George Clooney/selected/im_01.jpg,7,28,4,52,George Clooney,George\nClooney,1,117.587318533727,47.0349274134907,,0.431178835707215,2
Quanti fatti ricordi?,1 = Moltissimo\n2 = Molto\n3 = Poco\n4 = Pochissimo,People/Julia Roberts/selected/im_106.jpg,7,29,4,52,Julia Roberts,Julia\nRoberts,1,120.10299713418,48.0411988536722,,0.434839813508006,2
Quanti fatti ricordi?,1 = Moltissimo\n2 = Molto\n3 = Poco\n4 = Pochissimo,People/Rihanna/selected/im_10.jpg,7,30,4,52,Rihanna,Rihanna,1,122.618682150648,49.0474728602592,,0.840135591770377,2
Quanti fatti ricordi?,1 = Moltissimo\n2 = Molto\n3 = Poco\n4 = Pochissimo,People/Michael Jackson/selected/im_33.jpg,7,31,4,52,Michael Jackson,Michael\nJackson,1,125.134394969845,50.0537579879379,,0.824302579238065,3
Quanti fatti ricordi?,1 = Moltissimo\n2 = Molto\n3 = Poco\n4 = Pochissimo,People/Laura Pausini/selected/im_15.jpg,7,32,4,52,Laura Pausini,Laura\nPausini,1,127.650082124984,51.0600328499935,,,
Stesso nome?,1 = Nome diverso\n2 = Stesso nome,People/Matteo Renzi/selected/im_14.jpg,11,25,4,53,Matteo Renzi,Matteo\nRenzi,1,142.510994482228,57.0043977928912,,0.00148680439633608,1
Stesso nome?,1 = Nome diverso\n2 = Stesso nome,People/Paolo Bonolis/selected/im_08.jpg,11,26,4,53,Paolo Bonolis,Paolo\nBonolis,1,145.026665383464,58.0106661533857,,0.482934257239322,2
Stesso nome?,1 = Nome diverso\n2 = Stesso nome,People/Paolo Bonolis/selected/im_08.jpg,11,27,4,53,Paolo Bonolis,Paolo\nBonolis,1,147.542379913598,59.0169519654391,,0.186895076777546,1
Stesso nome?,1 = Nome diverso\n2 = Stesso nome,People/Roberto Maroni/selected/im_30.jpg,11,28,4,53,Roberto Maroni,Roberto\nMaroni,1,150.058018307028,60.0232073228111,,0.0133487317671097,2
Stesso nome?,1 = Nome diverso\n2 = Stesso nome,People/Bill Clinton/selected/im_12.jpg,11,29,4,53,Bill Clinton,Bill\nClinton,1,152.573805979726,61.0295223918904,,0.397507592283546,2
Stesso nome?,1 = Nome diverso\n2 = Stesso nome,People/George Clooney/selected/im_04.jpg,11,30,4,53,George Clooney,George\nClooney,1,155.089430685658,62.0357722742632,,0.282616022926049,2
Stesso nome?,1 = Nome diverso\n2 = Stesso nome,People/Paris Hilton/selected/im_01.jpg,11,31,4,53,Paris Hilton,Paris\nHilton,1,157.605063090808,63.0420252363234,,0.387284742718293,2
Stesso nome?,1 = Nome diverso\n2 = Stesso nome,People/Paris Hilton/selected/im_01.jpg,11,32,4,53,Paris Hilton,Paris\nHilton,1,160.120783609222,64.0483134436887,,0.21176312074931,1
Quanto attraente?,1 = Moltissimo\n2 = Molto\n3 = Poco\n4 = Pochissimo,People/Johnny Depp/selected/im_17.jpg,2,25,4,54,Johnny Depp,Johnny\nDepp,1,175.01497454981,70.0059898199241,,1.00749048291163,1
Quanto attraente?,1 = Moltissimo\n2 = Molto\n3 = Poco\n4 = Pochissimo,People/Angelina Jolie/selected/im_14.jpg,2,26,4,54,Angelina Jolie,Angelina\nJolie,1,177.547341203644,71.0189364814578,,0.905438641515502,2
Quanto attraente?,1 = Moltissimo\n2 = Molto\n3 = Poco\n4 = Pochissimo,People/Giorgia Meloni/selected/im_17.jpg,2,27,4,54,Giorgia Meloni,Giorgia\nMeloni,1,180.062995423244,72.0251981692974,,0.889523503999953,4
Quanto attraente?,1 = Moltissimo\n2 = Molto\n3 = Poco\n4 = Pochissimo,People/Filippo Inzaghi/selected/im_01.jpg,2,28,4,54,Filippo Inzaghi,Filippo\nInzaghi,1,182.578843834211,73.0315375336842,,0.864787629924649,4
Quanto attraente?,1 = Moltissimo\n2 = Molto\n3 = Poco\n4 = Pochissimo,People/Barack Obama/selected/im_03.jpg,2,29,4,54,Barack Obama,Barack\nObama,1,185.094389837033,74.0377559348133,,0.569323752085438,1
Quanto attraente?,1 = Moltissimo\n2 = Molto\n3 = Poco\n4 = Pochissimo,People/Roberto Maroni/selected/im_16.jpg,2,30,4,54,Roberto Maroni,Roberto\nMaroni,1,187.610043628898,75.0440174515592,,0.533794003164985,4
Quanto attraente?,1 = Moltissimo\n2 = Molto\n3 = Poco\n4 = Pochissimo,People/Bill Clinton/selected/im_16.jpg,2,31,4,54,Bill Clinton,Bill\nClinton,1,190.125733778177,76.0502935112709,,0.617724025834832,4
Quanto attraente?,1 = Moltissimo\n2 = Molto\n3 = Poco\n4 = Pochissimo,People/Justin Bieber/selected/im_05.jpg,2,32,4,54,Justin Bieber,Justin\nBieber,1,192.641465417682,77.056586167073,,0.441726335599924,3
Memoria remota?,1 = Moltissimo\n2 = Molto\n3 = Poco\n4 = Pochissimo,People/Giorgia Meloni/selected/im_67.jpg,1,25,4,55,Giorgia Meloni,Giorgia\nMeloni,1,207.518958039266,83.0075832157065,,1.51510244236306,3
Memoria remota?,1 = Moltissimo\n2 = Molto\n3 = Poco\n4 = Pochissimo,People/Paris Hilton/selected/im_48.jpg,1,26,4,55,Paris Hilton,Paris\nHilton,1,210.567781342231,84.2271125368923,,0.378584199494981,2
Memoria remota?,1 = Moltissimo\n2 = Molto\n3 = Poco\n4 = Pochissimo,People/Rihanna/selected/im_13.jpg,1,27,4,55,Rihanna,Rihanna,1,213.083491167287,85.2333964669149,,0.36353009110735,1
Memoria remota?,1 = Moltissimo\n2 = Molto\n3 = Poco\n4 = Pochissimo,People/George Clooney/selected/im_04.jpg,1,28,4,55,George Clooney,George\nClooney,1,215.599222806793,86.239689122717,,1.53717994781618,2
Memoria remota?,1 = Moltissimo\n2 = Molto\n3 = Poco\n4 = Pochissimo,People/Hillary Clinton/selected/im_09.jpg,1,29,4,55,Hillary Clinton,Hillary\nClinton,1,218.66480816117,87.4659232644681,,0.00147696650856233,1
Memoria remota?,1 = Moltissimo\n2 = Molto\n3 = Poco\n4 = Pochissimo,People/Fiorello/selected/im_29.jpg,1,30,4,55,Fiorello,Fiorello,1,221.180370417896,88.4721481671586,,1.65649899482378,2
Memoria remota?,1 = Moltissimo\n2 = Molto\n3 = Poco\n4 = Pochissimo,People/Michael Jackson/selected/im_50.jpg,1,31,4,55,Michael Jackson,Michael\nJackson,1,224.362414560075,89.7449658240301,,1.41535908293827,2
Memoria remota?,1 = Moltissimo\n2 = Molto\n3 = Poco\n4 = Pochissimo,People/Robin Williams/selected/im_13.jpg,1,32,4,55,Robin Williams,Robin\nWilliams,1,227.311297318106,90.9245189272424,,0.628509773728183,2
Quanto amichevole?,1 = Moltissimo\n2 = Molto\n3 = Poco\n4 = Pochissimo,People/Michelle Hunziker/selected/im_47.jpg,3,25,4,56,Michelle Hunziker,Michelle\nHunziker,1,240.006297104239,96.0025188416956,,,
Quanto amichevole?,1 = Moltissimo\n2 = Molto\n3 = Poco\n4 = Pochissimo,People/Filippo Inzaghi/selected/im_57.jpg,3,26,4,56,Filippo Inzaghi,Filippo\nInzaghi,1,242.522180589418,97.0088722357672,,0.00149279267679958,23
Quanto amichevole?,1 = Moltissimo\n2 = Molto\n3 = Poco\n4 = Pochissimo,People/Paris Hilton/selected/im_15.jpg,3,27,4,56,Paris Hilton,Paris\nHilton,1,245.037789469182,98.0151157876728,,0.903652423115091,3
Quanto amichevole?,1 = Moltissimo\n2 = Molto\n3 = Poco\n4 = Pochissimo,People/Johnny Depp/selected/im_12.jpg,3,28,4,56,Johnny Depp,Johnny\nDepp,1,247.553397493477,99.0213589973908,,0.688259976901463,2
Quanto amichevole?,1 = Moltissimo\n2 = Molto\n3 = Poco\n4 = Pochissimo,People/Angelino Alfano/selected/im_12.jpg,3,29,4,56,Angelino Alfano,Angelino\nAlfano,1,250.069134265794,100.027653706318,,0.433768339107701,4
Quanto amichevole?,1 = Moltissimo\n2 = Molto\n3 = Poco\n4 = Pochissimo,People/Arnold Schwarzenegger/selected/im_11.jpg,3,30,4,56,Arnold Schwarzenegger,Arnold\nSchwarzenegger,1,252.584751272509,101.033900509004,,0.458357072587205,3
Quanto amichevole?,1 = Moltissimo\n2 = Molto\n3 = Poco\n4 = Pochissimo,People/Fiorello/selected/im_69.jpg,3,31,4,56,Fiorello,Fiorello,1,255.100501732324,102.04020069293,,0.842664784635417,3
Quanto amichevole?,1 = Moltissimo\n2 = Molto\n3 = Poco\n4 = Pochissimo,People/Jim Carrey/selected/im_08.jpg,3,32,4,56,Jim Carrey,Jim\nCarrey,1,257.616165362077,103.046466144831,,0.41790196330021,2
Che lavoro fa?,1 = Presentatore TV/attore\n2 = Cantante/Musicista\n3 = Politico/Sportivo\n4 = Altro/Non so,People/Silvio Berlusconi/selected/Silvio Berlusconi_2.jpg,8,25,4,57,Silvio Berlusconi,Silvio\nBerlusconi,1,272.510372128833,109.004148851533,,0.00149621455148008,3
Che lavoro fa?,1 = Presentatore TV/attore\n2 = Cantante/Musicista\n3 = Politico/Sportivo\n4 = Altro/Non so,People/Daniel Radcliffe/selected/im_11.jpg,8,26,4,57,Daniel Radcliffe,Daniel\nRadcliffe,1,275.026005389453,110.010402155781,,0.730134736301807,1
Che lavoro fa?,1 = Presentatore TV/attore\n2 = Cantante/Musicista\n3 = Politico/Sportivo\n4 = Altro/Non so,People/Bill Clinton/selected/im_18.jpg,8,27,4,57,Bill Clinton,Bill\nClinton,1,277.541778091449,111.01671123658,,0.895208092732901,3
Che lavoro fa?,1 = Presentatore TV/attore\n2 = Cantante/Musicista\n3 = Politico/Sportivo\n4 = Altro/Non so,People/Johnny Depp/selected/im_50.jpg,8,28,4,57,Johnny Depp,Johnny\nDepp,1,280.057391248556,112.022956499422,,0.659103896658962,1
Che lavoro fa?,1 = Presentatore TV/attore\n2 = Cantante/Musicista\n3 = Politico/Sportivo\n4 = Altro/Non so,People/Mike Tyson/selected/im_10.jpg,8,29,4,57,Mike Tyson,Mike\nTyson,1,282.573083108773,113.029233243509,,0.863867145728364,3
Che lavoro fa?,1 = Presentatore TV/attore\n2 = Cantante/Musicista\n3 = Politico/Sportivo\n4 = Altro/Non so,People/Barack Obama/selected/im_24.jpg,8,30,4,57,Barack Obama,Barack\nObama,1,285.088755293212,114.035502117285,,0.848594892852816,3
Che lavoro fa?,1 = Presentatore TV/attore\n2 = Cantante/Musicista\n3 = Politico/Sportivo\n4 = Altro/Non so,People/Cameron Diaz/selected/im_29.jpg,8,31,4,57,Cameron Diaz,Cameron\nDiaz,1,287.604474956157,115.041789982463,,0.672920569742018,1
Che lavoro fa?,1 = Presentatore TV/attore\n2 = Cantante/Musicista\n3 = Politico/Sportivo\n4 = Altro/Non so,People/Justin Bieber/selected/im_08.jpg,8,32,4,57,Justin Bieber,Justin\nBieber,1,290.120148851533,116.048059540613,,0.656545617862321,2
Stesso nome?,1 = nome diverso\n2 = Stesso nome,Monuments/White House.jpg,16,25,4,58,White House,White\nHouse,2,305.014392403439,122.005756961376,,0.00152701141996658,1
Stesso nome?,1 = nome diverso\n2 = Stesso nome,Monuments/Stonehenge.jpg,16,26,4,58,Stonehenge,Stonehenge,2,307.530056460927,123.012022584371,,0.0881260960695727,2
Stesso nome?,1 = nome diverso\n2 = Stesso nome,Monuments/Mart.jpg,16,27,4,58,Mart,Mart,2,310.045746182472,124.018298472989,,0.0940215578084462,2
Stesso nome?,1 = nome diverso\n2 = Stesso nome,Monuments/Altare della Patria.jpg,16,28,4,58,Altare della Patria,Altare\ndella Patria,2,312.561401257539,125.024560503016,,0.438648787373495,2
Stesso nome?,1 = nome diverso\n2 = Stesso nome,Monuments/Arco di Costantino.jpg,16,29,4,58,Arco di Costantino,Arco\ndi Costantino,2,315.077083707601,126.03083348304,,0.703662688737495,1
Stesso nome?,1 = nome diverso\n2 = Stesso nome,Monuments/Arco di Costantino.jpg,16,30,4,58,Arco di Costantino,Arco\ndi Costantino,2,317.592866247487,127.037146498995,,0.287422473159495,2
Stesso nome?,1 = nome diverso\n2 = Stesso nome,Monuments/Taj Mahal.jpg,16,31,4,58,Taj Mahal,Taj\nMahal,2,320.10848795928,128.043395183712,,0.571669019205729,2
Stesso nome?,1 = nome diverso\n2 = Stesso nome,Monuments/Arena di Verona.jpg,16,32,4,58,Arena di Verona,Arena\ndi Verona,2,322.624173403482,129.049669361393,,0.236435690148937,2
Cognome comune?,1 = Moltissimo\n2 = Molto\n3 = Poco\n4 = Pochissimo,People/Angelino Alfano/selected/im_73.jpg,10,25,4,59,Angelino Alfano,Angelino\nAlfano,1,337.518426365542,135.007370546217,,,
Cognome comune?,1 = Moltissimo\n2 = Molto\n3 = Poco\n4 = Pochissimo,People/Matt Damon/selected/im_21.jpg,10,26,4,59,Matt Damon,Matt\nDamon,1,340.034165704265,136.013666281706,,0.91739809230512,1
Cognome comune?,1 = Moltissimo\n2 = Molto\n3 = Poco\n4 = Pochissimo,People/Matteo Renzi/selected/im_16.jpg,10,27,4,59,Matteo Renzi,Matteo\nRenzi,1,342.549713418025,137.01988536721,,0.381522306342958,1
Cognome comune?,1 = Moltissimo\n2 = Molto\n3 = Poco\n4 = Pochissimo,People/Michelle Obama/selected/im_08.jpg,10,28,4,59,Michelle Obama,Michelle\nObama,1,345.065472860259,138.026189144104,,0.605967321100252,3
Cognome comune?,1 = Moltissimo\n2 = Molto\n3 = Poco\n4 = Pochissimo,People/Robin Williams/selected/im_04.jpg,10,29,4,59,Robin Williams,Robin\nWilliams,1,347.581156593525,139.03246263741,,0.670433294837494,3
Cognome comune?,1 = Moltissimo\n2 = Molto\n3 = Poco\n4 = Pochissimo,People/Rihanna/selected/im_02 (1).jpg,10,30,4,59,Rihanna,Rihanna,1,350.096805680311,140.038722272125,,0.854888147483507,2
Cognome comune?,1 = Moltissimo\n2 = Molto\n3 = Poco\n4 = Pochissimo,People/Johnny Depp/selected/im_17.jpg,10,31,4,59,Johnny Depp,Johnny\nDepp,1,352.612500962402,141.045000384961,,0.839287822404913,3
Cognome comune?,1 = Moltissimo\n2 = Molto\n3 = Poco\n4 = Pochissimo,People/Michelle Hunziker/selected/im_12.jpg,10,32,4,59,Michelle Hunziker,Michelle\nHunziker,1,355.128152187861,142.051260875144,,0.824476239360592,3
Quanto familiare?,1 = Moltissimo\n2 = Molto\n3 = Poco\n4 = Pochissimo,People/Daniel Radcliffe/selected/im_12.jpg,5,25,4,60,Daniel Radcliffe,Daniel\nRadcliffe,1,370.02236023782,148.008944095128,,1.81226784721366,3
Quanto familiare?,1 = Moltissimo\n2 = Molto\n3 = Poco\n4 = Pochissimo,People/Matteo Renzi/selected/im_49.jpg,5,26,4,60,Matteo Renzi,Matteo\nRenzi,1,373.371201933359,149.348480773344,,0.0744629795972287,3
Quanto familiare?,1 = Moltissimo\n2 = Molto\n3 = Poco\n4 = Pochissimo,People/Michelle Hunziker/selected/im_27.jpg,5,27,4,60,Michelle Hunziker,Michelle\nHunziker,1,375.886775311177,150.354710124471,,0.0587984943749689,2
Quanto familiare?,1 = Moltissimo\n2 = Molto\n3 = Poco\n4 = Pochissimo,People/Giorgio Napolitano/selected/im_38.jpg,5,28,4,60,Giorgio Napolitano,Giorgio\nNapolitano,1,378.40245989991,151.360983959964,,0.0431515462596508,2
Quanto familiare?,1 = Moltissimo\n2 = Molto\n3 = Poco\n4 = Pochissimo,People/Hillary Clinton/selected/im_31.jpg,5,29,4,60,Hillary Clinton,Hillary\nClinton,1,380.918140639035,152.367256255614,,1.15766927584627,4
Quanto familiare?,1 = Moltissimo\n2 = Molto\n3 = Poco\n4 = Pochissimo,People/Silvio Berlusconi/selected/im_01.jpg,5,30,4,60,Silvio Berlusconi,Silvio\nBerlusconi,1,383.617063176355,153.446825270542,,0.00151674579683458,4
Quanto familiare?,1 = Moltissimo\n2 = Molto\n3 = Poco\n4 = Pochissimo,People/Jim Carrey/selected/im_69.jpg,5,31,4,60,Jim Carrey,Jim\nCarrey,1,386.132755464306,154.453102185722,,1.16269600923897,2
Quanto familiare?,1 = Moltissimo\n2 = Molto\n3 = Poco\n4 = Pochissimo,People/George Bush/selected/im_85.jpg,5,32,4,60,George Bush,George\nBush,1,388.83170537662,155.532682150648,,0.00150819111149758,4
Quanto affidabile?,1 = Moltissimo\n2 = Molto\n3 = Poco\n4 = Pochissimo,People/Johnny Depp/selected/im_50.jpg,4,25,4,61,Johnny Depp,Johnny\nDepp,1,402.509807091835,161.003922836734,,1.01641858077801,2
Quanto affidabile?,1 = Moltissimo\n2 = Molto\n3 = Poco\n4 = Pochissimo,People/Filippo Inzaghi/selected/im_09.jpg,4,26,4,61,Filippo Inzaghi,Filippo\nInzaghi,1,405.058751871337,162.023500748535,,0.697917789469102,3
Quanto affidabile?,1 = Moltissimo\n2 = Molto\n3 = Poco\n4 = Pochissimo,People/Michelle Obama/selected/im_32.jpg,4,27,4,61,Michelle Obama,Michelle\nObama,1,407.574420633902,163.029768253561,,0.561885025022093,1
Quanto affidabile?,1 = Moltissimo\n2 = Molto\n3 = Poco\n4 = Pochissimo,People/Silvio Berlusconi/selected/im_08.jpg,4,28,4,61,Silvio Berlusconi,Silvio\nBerlusconi,1,410.090090251935,164.036036100774,,0.526654690106625,4
Quanto affidabile?,1 = Moltissimo\n2 = Molto\n3 = Poco\n4 = Pochissimo,People/Roberto Maroni/selected/im_36.jpg,4,29,4,61,Roberto Maroni,Roberto\nMaroni,1,412.605776551606,165.042310620642,,0.510921767398031,4
Quanto affidabile?,1 = Moltissimo\n2 = Molto\n3 = Poco\n4 = Pochissimo,People/Laura Pausini/selected/im_03.jpg,4,30,4,61,Laura Pausini,Laura\nPausini,1,415.121530861029,166.048612344412,,0.817298430214578,2
Quanto affidabile?,1 = Moltissimo\n2 = Molto\n3 = Poco\n4 = Pochissimo,People/Sandra Bullock/selected/im_12.jpg,4,31,4,61,Sandra Bullock,Sandra\nBullock,1,417.637188502503,167.054875401001,,0.6020933316222,2
Quanto affidabile?,1 = Moltissimo\n2 = Molto\n3 = Poco\n4 = Pochissimo,People/George Bush/selected/im_24.jpg,4,32,4,61,George Bush,George\nBush,1,420.152891056076,168.061156422431,,0.686289832755392,4
Stesso nome?,1 = Nome diverso\n2 = Stesso nome,People/Daniel Radcliffe/selected/im_07.jpg,13,25,4,62,Daniel Radcliffe,Daniel\nRadcliffe,1,435.013741819582,174.005496727833,,0.00151460712550033,1
Stesso nome?,1 = Nome diverso\n2 = Stesso nome,People/Angelino Alfano/selected/im_12.jpg,13,26,4,62,Angelino Alfano,Angelino\nAlfano,1,437.529422986441,175.011769194576,,0.0961550964539128,2
Stesso nome?,1 = Nome diverso\n2 = Stesso nome,People/Michael Jackson/selected/im_33.jpg,13,27,4,62,Michael Jackson,Michael\nJackson,1,440.045151631806,176.018060652722,,0.261029556440008,2
Stesso nome?,1 = Nome diverso\n2 = Stesso nome,People/Michael Jackson/selected/im_33.jpg,13,28,4,62,Michael Jackson,Michael\nJackson,1,442.56083622054,177.024334488216,,0.705104153299544,1
Stesso nome?,1 = Nome diverso\n2 = Stesso nome,People/Michael Jackson/selected/im_33.jpg,13,29,4,62,Michael Jackson,Michael\nJackson,1,445.076478891313,178.030591556525,,0.310424740151575,1
Stesso nome?,1 = Nome diverso\n2 = Stesso nome,People/Giorgio Napolitano/selected/im_41.jpg,13,30,4,62,Giorgio Napolitano,Giorgio\nNapolitano,1,447.592229351128,179.036891740451,,0.154239702296763,2
Stesso nome?,1 = Nome diverso\n2 = Stesso nome,People/Giorgio Napolitano/selected/im_41.jpg,13,31,4,62,Giorgio Napolitano,Giorgio\nNapolitano,1,450.107872449635,180.043148979854,,0.778941785362804,1
Stesso nome?,1 = Nome diverso\n2 = Stesso nome,People/George Clooney/selected/im_08 (1).jpg,13,32,4,62,George Clooney,George\nClooney,1,452.623543350871,181.049417340348,,0.163021942769774,2
Stesso nome?,1 = nome diverso\n2 = Stesso nome,Monuments/Notre Dame.jpg,15,25,4,63,Notre Dame,Notre\nDame,2,467.517765088327,187.007106035331,,1.18130587279211,1
Stesso nome?,1 = nome diverso\n2 = Stesso nome,Monuments/Notre Dame.jpg,15,26,4,63,Notre Dame,Notre\nDame,2,470.233341032551,188.09333641302,,0.69630095384673,1
Stesso nome?,1 = nome diverso\n2 = Stesso nome,Monuments/Castel SantAngelo.jpg,15,27,4,63,Castel SantAngelo,Castel\nSantAngelo,2,472.749054279482,189.099621711793,,0.300933316224473,2
Stesso nome?,1 = nome diverso\n2 = Stesso nome,Monuments/Castel SantAngelo.jpg,15,28,4,63,Castel SantAngelo,Castel\nSantAngelo,2,475.264750844775,190.10590033791,,0.245051969716769,1
Stesso nome?,1 = nome diverso\n2 = Stesso nome,Monuments/Mole Antonelliana.jpg,15,29,4,63,Mole Antonelliana,Mole\nAntonelliana,2,477.780414474529,191.112165789811,,0.249723255913523,2
Stesso nome?,1 = nome diverso\n2 = Stesso nome,Monuments/Piazza San Pietro.jpg,15,30,4,63,Piazza San Pietro,Piazza\nSan Pietro,2,480.296128576928,192.118451430771,,0.115789811369723,2
Stesso nome?,1 = nome diverso\n2 = Stesso nome,Monuments/Duomo di Trento.jpg,15,31,4,63,Duomo di Trento,Duomo\ndi Trento,2,482.811798194962,193.124719277985,,0.279914025407379,2
Stesso nome?,1 = nome diverso\n2 = Stesso nome,Monuments/Piramidi di Ghiza.jpg,15,32,4,63,Piramidi di Ghiza,Piramidi\ndi Ghiza,2,485.327523846187,194.131009538475,,0.324926215835148,2
Volto distintivo?,1 = Moltissimo\n2 = Molto\n3 = Poco\n4 = Pochissimo,People/Paris Hilton/selected/im_18.jpg,9,25,4,64,Paris Hilton,Paris\nHilton,1,500.021882886351,200.00875315454,,1.34159544890736,3
